Created As Omnic File,PLAS 206
Raman Shift / cm-1,INT
3418.58,-182
3417.61,-132
3416.65,-111
3415.68,-104
3414.72,-79
3413.76,-50
3412.79,-51
3411.83,-84
3410.86,-130
3409.90,-150
3408.94,-111
3407.97,-37
3407.01,20
3406.04,4
3405.08,-25
3404.11,1
3403.15,89
3402.19,119
3401.22,91
3400.26,35
3399.29,20
3398.33,34
3397.36,36
3396.40,25
3395.44,13
3394.47,11
3393.51,40
3392.54,97
3391.58,159
3390.61,214
3389.65,224
3388.69,158
3387.72,98
3386.76,81
3385.79,111
3384.83,145
3383.87,141
3382.90,133
3381.94,143
3380.97,129
3380.01,70
3379.04,5
3378.08,-6
3377.12,0
3376.15,72
3375.19,129
3374.22,154
3373.26,153
3372.29,110
3371.33,40
3370.37,-15
3369.40,-32
3368.44,-22
3367.47,-11
3366.51,-17
3365.54,-33
3364.58,-23
3363.62,-12
3362.65,-10
3361.69,-17
3360.72,-40
3359.76,-60
3358.80,-59
3357.83,-35
3356.87,9
3355.90,26
3354.94,-24
3353.97,-65
3353.01,-84
3352.05,-93
3351.08,-63
3350.12,-23
3349.15,-6
3348.19,-2
3347.22,-1
3346.26,7
3345.30,53
3344.33,73
3343.37,48
3342.40,15
3341.44,10
3340.47,24
3339.51,47
3338.55,40
3337.58,10
3336.62,-11
3335.65,-21
3334.69,-14
3333.73,8
3332.76,38
3331.80,71
3330.83,79
3329.87,29
3328.90,-61
3327.94,-112
3326.98,-89
3326.01,-39
3325.05,23
3324.08,60
3323.12,35
3322.15,-4
3321.19,14
3320.23,57
3319.26,73
3318.30,74
3317.33,74
3316.37,62
3315.40,37
3314.44,26
3313.48,16
3312.51,0
3311.55,28
3310.58,37
3309.62,41
3308.66,60
3307.69,51
3306.73,34
3305.76,25
3304.80,14
3303.83,2
3302.87,-13
3301.91,-35
3300.94,-12
3299.98,42
3299.01,66
3298.05,78
3297.08,85
3296.12,65
3295.16,58
3294.19,108
3293.23,159
3292.26,197
3291.30,194
3290.33,94
3289.37,-26
3288.41,-37
3287.44,-7
3286.48,-25
3285.51,-57
3284.55,-36
3283.59,19
3282.62,48
3281.66,56
3280.69,69
3279.73,71
3278.76,22
3277.80,-39
3276.84,-82
3275.87,-109
3274.91,-98
3273.94,-75
3272.98,-77
3272.01,-85
3271.05,-71
3270.09,-29
3269.12,0
3268.16,-46
3267.19,-124
3266.23,-130
3265.26,-95
3264.30,-80
3263.34,-75
3262.37,-45
3261.41,-6
3260.44,16
3259.48,29
3258.51,21
3257.55,6
3256.59,-3
3255.62,-2
3254.66,22
3253.69,30
3252.73,24
3251.77,17
3250.80,5
3249.84,-3
3248.87,-10
3247.91,-8
3246.94,20
3245.98,89
3245.02,130
3244.05,118
3243.09,111
3242.12,121
3241.16,110
3240.19,85
3239.23,101
3238.27,155
3237.30,203
3236.34,211
3235.37,211
3234.41,241
3233.44,268
3232.48,305
3231.52,340
3230.55,360
3229.59,369
3228.62,362
3227.66,357
3226.70,358
3225.73,343
3224.77,353
3223.80,371
3222.84,371
3221.87,373
3220.91,371
3219.95,372
3218.98,377
3218.02,364
3217.05,327
3216.09,294
3215.12,295
3214.16,310
3213.20,283
3212.23,223
3211.27,207
3210.30,195
3209.34,157
3208.37,120
3207.41,81
3206.45,58
3205.48,94
3204.52,124
3203.55,101
3202.59,99
3201.63,126
3200.66,145
3199.70,140
3198.73,96
3197.77,35
3196.80,0
3195.84,26
3194.88,59
3193.91,63
3192.95,59
3191.98,47
3191.02,23
3190.05,9
3189.09,3
3188.13,13
3187.16,48
3186.20,87
3185.23,94
3184.27,66
3183.30,29
3182.34,2
3181.38,-1
3180.41,9
3179.45,-3
3178.48,-12
3177.52,1
3176.56,32
3175.59,52
3174.63,-5
3173.66,-97
3172.70,-134
3171.73,-76
3170.77,30
3169.81,101
3168.84,99
3167.88,41
3166.91,-15
3165.95,-56
3164.98,-114
3164.02,-159
3163.06,-133
3162.09,-58
3161.13,-0
3160.16,31
3159.20,28
3158.23,-23
3157.27,-49
3156.31,-21
3155.34,26
3154.38,89
3153.41,99
3152.45,9
3151.49,-86
3150.52,-90
3149.56,-35
3148.59,-9
3147.63,-17
3146.66,-19
3145.70,-2
3144.74,27
3143.77,31
3142.81,12
3141.84,6
3140.88,26
3139.91,38
3138.95,17
3137.99,-1
3137.02,-0
3136.06,-4
3135.09,1
3134.13,7
3133.16,18
3132.20,50
3131.24,70
3130.27,61
3129.31,50
3128.34,51
3127.38,50
3126.42,40
3125.45,61
3124.49,119
3123.52,161
3122.56,200
3121.59,211
3120.63,167
3119.67,156
3118.70,186
3117.74,210
3116.77,226
3115.81,235
3114.84,225
3113.88,229
3112.92,301
3111.95,412
3110.99,523
3110.02,602
3109.06,625
3108.09,635
3107.13,645
3106.17,625
3105.20,614
3104.24,669
3103.27,782
3102.31,912
3101.34,1015
3100.38,1104
3099.42,1205
3098.45,1270
3097.49,1322
3096.52,1436
3095.56,1595
3094.60,1781
3093.63,1983
3092.67,2222
3091.70,2516
3090.74,2840
3089.77,3211
3088.81,3698
3087.85,4212
3086.88,4694
3085.92,5195
3084.95,5755
3083.99,6303
3083.02,6732
3082.06,6976
3081.10,6963
3080.13,6778
3079.17,6465
3078.20,6029
3077.24,5508
3076.27,5049
3075.31,4683
3074.35,4348
3073.38,4012
3072.42,3702
3071.45,3475
3070.49,3298
3069.53,3125
3068.56,2956
3067.60,2787
3066.63,2590
3065.67,2379
3064.70,2180
3063.74,1973
3062.78,1791
3061.81,1625
3060.85,1447
3059.88,1289
3058.92,1182
3057.95,1112
3056.99,1056
3056.03,971
3055.06,849
3054.10,771
3053.13,771
3052.17,778
3051.20,721
3050.24,632
3049.28,578
3048.31,539
3047.35,490
3046.38,477
3045.42,486
3044.46,463
3043.49,427
3042.53,407
3041.56,434
3040.60,472
3039.63,473
3038.67,468
3037.71,481
3036.74,507
3035.78,530
3034.81,521
3033.85,498
3032.88,509
3031.92,576
3030.96,642
3029.99,638
3029.03,640
3028.06,676
3027.10,725
3026.13,778
3025.17,796
3024.21,786
3023.24,814
3022.28,876
3021.31,904
3020.35,878
3019.39,872
3018.42,949
3017.46,1070
3016.49,1176
3015.53,1243
3014.56,1275
3013.60,1314
3012.64,1378
3011.67,1451
3010.71,1507
3009.74,1527
3008.78,1563
3007.81,1670
3006.85,1790
3005.89,1886
3004.92,1965
3003.96,2008
3002.99,2036
3002.03,2082
3001.06,2118
3000.10,2125
2999.14,2136
2998.17,2148
2997.21,2130
2996.24,2097
2995.28,2057
2994.32,2014
2993.35,2026
2992.39,2033
2991.42,2009
2990.46,2014
2989.49,2068
2988.53,2130
2987.57,2158
2986.60,2126
2985.64,2086
2984.67,2093
2983.71,2143
2982.74,2233
2981.78,2335
2980.82,2439
2979.85,2547
2978.89,2660
2977.92,2786
2976.96,2921
2975.99,3059
2975.03,3204
2974.07,3335
2973.10,3462
2972.14,3625
2971.17,3780
2970.21,3910
2969.25,4061
2968.28,4224
2967.32,4373
2966.35,4474
2965.39,4510
2964.42,4532
2963.46,4528
2962.50,4457
2961.53,4376
2960.57,4290
2959.60,4162
2958.64,4004
2957.67,3846
2956.71,3709
2955.75,3579
2954.78,3422
2953.82,3218
2952.85,3011
2951.89,2844
2950.92,2710
2949.96,2572
2949.00,2399
2948.03,2205
2947.07,2005
2946.10,1818
2945.14,1635
2944.17,1458
2943.21,1322
2942.25,1223
2941.28,1128
2940.32,1041
2939.35,978
2938.39,917
2937.43,857
2936.46,812
2935.50,768
2934.53,730
2933.57,712
2932.60,695
2931.64,655
2930.68,601
2929.71,558
2928.75,539
2927.78,554
2926.82,589
2925.85,597
2924.89,586
2923.93,589
2922.96,592
2922.00,612
2921.03,641
2920.07,658
2919.10,672
2918.14,717
2917.18,809
2916.21,892
2915.25,894
2914.28,866
2913.32,904
2912.36,997
2911.39,1097
2910.43,1176
2909.46,1228
2908.50,1284
2907.53,1358
2906.57,1402
2905.61,1372
2904.64,1297
2903.68,1238
2902.71,1238
2901.75,1285
2900.78,1290
2899.82,1225
2898.86,1164
2897.89,1161
2896.93,1182
2895.96,1159
2895.00,1101
2894.03,1079
2893.07,1098
2892.11,1125
2891.14,1175
2890.18,1202
2889.21,1198
2888.25,1202
2887.29,1221
2886.32,1271
2885.36,1341
2884.39,1357
2883.43,1291
2882.46,1217
2881.50,1186
2880.54,1173
2879.57,1199
2878.61,1227
2877.64,1169
2876.68,1076
2875.71,1024
2874.75,1018
2873.79,1034
2872.82,1033
2871.86,1006
2870.89,972
2869.93,931
2868.96,900
2868.00,918
2867.04,979
2866.07,1020
2865.11,990
2864.14,957
2863.18,976
2862.22,968
2861.25,887
2860.29,805
2859.32,788
2858.36,805
2857.39,811
2856.43,789
2855.47,772
2854.50,758
2853.54,699
2852.57,635
2851.61,591
2850.64,532
2849.68,479
2848.72,455
2847.75,441
2846.79,413
2845.82,385
2844.86,379
2843.89,385
2842.93,386
2841.97,388
2841.00,379
2840.04,358
2839.07,313
2838.11,225
2837.15,137
2836.18,95
2835.22,69
2834.25,26
2833.29,-22
2832.32,-45
2831.36,-38
2830.40,-29
2829.43,-42
2828.47,-79
2827.50,-97
2826.54,-77
2825.57,-82
2824.61,-145
2823.65,-176
2822.68,-116
2821.72,-12
2820.75,57
2819.79,82
2818.82,67
2817.86,13
2816.90,-47
2815.93,-75
2814.97,-53
2814.00,-11
2813.04,-16
2812.08,-63
2811.11,-82
2810.15,-67
2809.18,-46
2808.22,-19
2807.25,-9
2806.29,-36
2805.33,-60
2804.36,-71
2803.40,-80
2802.43,-83
2801.47,-80
2800.50,-72
2799.54,-58
2798.58,-45
2797.61,-47
2796.65,-57
2795.68,-48
2794.72,-43
2793.75,-72
2792.79,-84
2791.83,-65
2790.86,-57
2789.90,-60
2788.93,-57
2787.97,-42
2787.00,-7
2786.04,38
2785.08,73
2784.11,82
2783.15,50
2782.18,-22
2781.22,-83
2780.26,-100
2779.29,-88
2778.33,-68
2777.36,-49
2776.40,-45
2775.43,-78
2774.47,-120
2773.51,-99
2772.54,-36
2771.58,-11
2770.61,-60
2769.65,-136
2768.68,-160
2767.72,-130
2766.76,-91
2765.79,-83
2764.83,-114
2763.86,-130
2762.90,-97
2761.93,-57
2760.97,-50
2760.01,-40
2759.04,-19
2758.08,2
2757.11,17
2756.15,5
2755.19,-20
2754.22,-35
2753.26,-40
2752.29,-19
2751.33,43
2750.36,115
2749.40,145
2748.44,129
2747.47,86
2746.51,17
2745.54,-48
2744.58,-79
2743.61,-62
2742.65,-18
2741.69,13
2740.72,17
2739.76,11
2738.79,0
2737.83,-26
2736.86,-55
2735.90,-80
2734.94,-85
2733.97,-41
2733.01,13
2732.04,-4
2731.08,-53
2730.12,-61
2729.15,-39
2728.19,-29
2727.22,-19
2726.26,27
2725.29,76
2724.33,60
2723.37,5
2722.40,-16
2721.44,-21
2720.47,-59
2719.51,-96
2718.54,-53
2717.58,42
2716.62,114
2715.65,125
2714.69,90
2713.72,37
2712.76,-7
2711.79,-25
2710.83,-33
2709.87,-29
2708.90,-18
2707.94,-44
2706.97,-73
2706.01,-84
2705.05,-101
2704.08,-87
2703.12,-43
2702.15,-20
2701.19,-32
2700.22,-61
2699.26,-95
2698.30,-110
2697.33,-92
2696.37,-51
2695.40,-34
2694.44,-61
2693.47,-90
2692.51,-91
2691.55,-61
2690.58,-9
2689.62,39
2688.65,53
2687.69,32
2686.72,4
2685.76,13
2684.80,47
2683.83,62
2682.87,42
2681.90,2
2680.94,-20
2679.98,-22
2679.01,-26
2678.05,-18
2677.08,21
2676.12,64
2675.15,71
2674.19,45
2673.23,20
2672.26,0
2671.30,-23
2670.33,-37
2669.37,-51
2668.40,-72
2667.44,-78
2666.48,-58
2665.51,-17
2664.55,22
2663.58,27
2662.62,-4
2661.65,-30
2660.69,-29
2659.73,-22
2658.76,-3
2657.80,50
2656.83,104
2655.87,123
2654.91,103
2653.94,68
2652.98,51
2652.01,48
2651.05,52
2650.08,72
2649.12,89
2648.16,66
2647.19,16
2646.23,-3
2645.26,26
2644.30,58
2643.33,93
2642.37,155
2641.41,225
2640.44,260
2639.48,238
2638.51,177
2637.55,120
2636.58,95
2635.62,86
2634.66,76
2633.69,65
2632.73,52
2631.76,46
2630.80,72
2629.83,139
2628.87,240
2627.91,339
2626.94,371
2625.98,309
2625.01,211
2624.05,158
2623.09,161
2622.12,173
2621.16,165
2620.19,167
2619.23,182
2618.26,169
2617.30,142
2616.34,146
2615.37,168
2614.41,161
2613.44,126
2612.48,95
2611.51,80
2610.55,87
2609.59,122
2608.62,151
2607.66,146
2606.69,118
2605.73,91
2604.76,85
2603.80,107
2602.84,115
2601.87,81
2600.91,43
2599.94,32
2598.98,30
2598.02,27
2597.05,20
2596.09,15
2595.12,28
2594.16,45
2593.19,53
2592.23,59
2591.27,62
2590.30,55
2589.34,40
2588.37,24
2587.41,14
2586.44,6
2585.48,0
2584.52,-24
2583.55,-77
2582.59,-114
2581.62,-99
2580.66,-51
2579.69,-3
2578.73,9
2577.77,-31
2576.80,-92
2575.84,-122
2574.87,-112
2573.91,-73
2572.95,-27
2571.98,-20
2571.02,-66
2570.05,-104
2569.09,-95
2568.12,-45
2567.16,15
2566.20,33
2565.23,-0
2564.27,-49
2563.30,-93
2562.34,-122
2561.37,-113
2560.41,-78
2559.45,-67
2558.48,-84
2557.52,-102
2556.55,-118
2555.59,-109
2554.62,-84
2553.66,-83
2552.70,-117
2551.73,-161
2550.77,-198
2549.80,-229
2548.84,-243
2547.88,-232
2546.91,-204
2545.95,-177
2544.98,-182
2544.02,-183
2543.05,-138
2542.09,-86
2541.13,-90
2540.16,-151
2539.20,-208
2538.23,-209
2537.27,-167
2536.30,-132
2535.34,-126
2534.38,-132
2533.41,-132
2532.45,-132
2531.48,-141
2530.52,-167
2529.55,-192
2528.59,-183
2527.63,-148
2526.66,-118
2525.70,-106
2524.73,-102
2523.77,-118
2522.81,-161
2521.84,-194
2520.88,-198
2519.91,-179
2518.95,-136
2517.98,-126
2517.02,-151
2516.06,-161
2515.09,-148
2514.13,-114
2513.16,-63
2512.20,-39
2511.23,-78
2510.27,-143
2509.31,-182
2508.34,-170
2507.38,-116
2506.41,-62
2505.45,-55
2504.48,-87
2503.52,-105
2502.56,-86
2501.59,-63
2500.63,-68
2499.66,-84
2498.70,-79
2497.74,-42
2496.77,-4
2495.81,13
2494.84,1
2493.88,-45
2492.91,-92
2491.95,-116
2490.99,-110
2490.02,-76
2489.06,-48
2488.09,-61
2487.13,-94
2486.16,-114
2485.20,-122
2484.24,-110
2483.27,-59
2482.31,-4
2481.34,17
2480.38,-3
2479.41,-47
2478.45,-76
2477.49,-90
2476.52,-106
2475.56,-125
2474.59,-135
2473.63,-124
2472.66,-104
2471.70,-102
2470.74,-118
2469.77,-124
2468.81,-112
2467.84,-80
2466.88,-43
2465.92,-19
2464.95,-16
2463.99,-16
2463.02,-16
2462.06,-23
2461.09,-39
2460.13,-57
2459.17,-72
2458.20,-84
2457.24,-95
2456.27,-110
2455.31,-109
2454.34,-77
2453.38,-28
2452.42,4
2451.45,-1
2450.49,-21
2449.52,-29
2448.56,-26
2447.59,-19
2446.63,-11
2445.67,-2
2444.70,11
2443.74,56
2442.77,134
2441.81,191
2440.85,200
2439.88,187
2438.92,151
2437.95,103
2436.99,77
2436.02,76
2435.06,81
2434.10,86
2433.13,106
2432.17,140
2431.20,184
2430.24,211
2429.27,213
2428.31,187
2427.35,139
2426.38,101
2425.42,77
2424.45,66
2423.49,79
2422.52,119
2421.56,176
2420.60,228
2419.63,247
2418.67,229
2417.70,195
2416.74,179
2415.78,170
2414.81,128
2413.85,66
2412.88,7
2411.92,-17
2410.95,32
2409.99,127
2409.03,174
2408.06,134
2407.10,54
2406.13,-2
2405.17,0
2404.20,33
2403.24,67
2402.28,115
2401.31,148
2400.35,125
2399.38,88
2398.42,88
2397.45,122
2396.49,140
2395.53,117
2394.56,74
2393.60,39
2392.63,12
2391.67,-19
2390.71,-37
2389.74,-4
2388.78,57
2387.81,105
2386.85,122
2385.88,108
2384.92,81
2383.96,46
2382.99,5
2382.03,-16
2381.06,21
2380.10,94
2379.13,157
2378.17,205
2377.21,230
2376.24,217
2375.28,173
2374.31,107
2373.35,39
2372.38,1
2371.42,3
2370.46,29
2369.49,44
2368.53,40
2367.56,52
2366.60,87
2365.64,89
2364.67,39
2363.71,-20
2362.74,-61
2361.78,-58
2360.81,-18
2359.85,13
2358.89,-6
2357.92,-69
2356.96,-130
2355.99,-145
2355.03,-107
2354.06,-41
2353.10,15
2352.14,25
2351.17,-20
2350.21,-65
2349.24,-47
2348.28,4
2347.31,47
2346.35,53
2345.39,9
2344.42,-57
2343.46,-97
2342.49,-101
2341.53,-97
2340.57,-88
2339.60,-62
2338.64,-25
2337.67,17
2336.71,32
2335.74,6
2334.78,-31
2333.82,-61
2332.85,-92
2331.89,-107
2330.92,-93
2329.96,-56
2328.99,-8
2328.03,28
2327.07,28
2326.10,21
2325.14,24
2324.17,18
2323.21,12
2322.24,-4
2321.28,-33
2320.32,-43
2319.35,-37
2318.39,-46
2317.42,-56
2316.46,-34
2315.49,1
2314.53,7
2313.57,1
2312.60,0
2311.64,-16
2310.67,-38
2309.71,-48
2308.75,-52
2307.78,-52
2306.82,-61
2305.85,-86
2304.89,-108
2303.92,-102
2302.96,-82
2302.00,-94
2301.03,-140
2300.07,-143
2299.10,-90
2298.14,-86
2297.17,-130
2296.21,-116
2295.25,-83
2294.28,-98
2293.32,-116
2292.35,-92
2291.39,-62
2290.42,-61
2289.46,-83
2288.50,-125
2287.53,-165
2286.57,-155
2285.60,-113
2284.64,-76
2283.68,-59
2282.71,-60
2281.75,-61
2280.78,-53
2279.82,-40
2278.85,-33
2277.89,-46
2276.93,-65
2275.96,-57
2275.00,-25
2274.03,-7
2273.07,-8
2272.10,-9
2271.14,-1
2270.18,18
2269.21,15
2268.25,-14
2267.28,-30
2266.32,-29
2265.35,-28
2264.39,-22
2263.43,-9
2262.46,5
2261.50,27
2260.53,71
2259.57,115
2258.61,93
2257.64,-3
2256.68,-92
2255.71,-135
2254.75,-130
2253.78,-64
2252.82,15
2251.86,61
2250.89,67
2249.93,46
2248.96,67
2248.00,132
2247.03,121
2246.07,38
2245.11,-3
2244.14,-14
2243.18,-6
2242.21,26
2241.25,37
2240.28,22
2239.32,17
2238.36,38
2237.39,60
2236.43,48
2235.46,-6
2234.50,-61
2233.54,-59
2232.57,-15
2231.61,24
2230.64,63
2229.68,78
2228.71,39
2227.75,0
2226.79,-9
2225.82,-16
2224.86,-20
2223.89,1
2222.93,34
2221.96,46
2221.00,39
2220.04,27
2219.07,-18
2218.11,-87
2217.14,-111
2216.18,-74
2215.21,2
2214.25,91
2213.29,134
2212.32,100
2211.36,35
2210.39,0
2209.43,3
2208.47,12
2207.50,6
2206.54,-11
2205.57,-22
2204.61,-1
2203.64,51
2202.68,97
2201.72,122
2200.75,136
2199.79,143
2198.82,145
2197.86,134
2196.89,102
2195.93,49
2194.97,-8
2194.00,-43
2193.04,-38
2192.07,8
2191.11,70
2190.14,119
2189.18,150
2188.22,168
2187.25,167
2186.29,151
2185.32,141
2184.36,139
2183.40,125
2182.43,86
2181.47,34
2180.50,-7
2179.54,-12
2178.57,15
2177.61,55
2176.65,96
2175.68,121
2174.72,109
2173.75,70
2172.79,41
2171.82,45
2170.86,69
2169.90,86
2168.93,89
2167.97,88
2167.00,78
2166.04,55
2165.07,35
2164.11,37
2163.15,57
2162.18,75
2161.22,77
2160.25,68
2159.29,63
2158.32,81
2157.36,117
2156.40,135
2155.43,110
2154.47,63
2153.50,39
2152.54,49
2151.58,81
2150.61,113
2149.65,121
2148.68,107
2147.72,107
2146.75,141
2145.79,177
2144.83,183
2143.86,159
2142.90,113
2141.93,56
2140.97,10
2140.00,0
2139.04,18
2138.08,42
2137.11,71
2136.15,93
2135.18,84
2134.22,63
2133.25,74
2132.29,117
2131.33,156
2130.36,165
2129.40,140
2128.43,106
2127.47,94
2126.51,107
2125.54,130
2124.58,142
2123.61,128
2122.65,98
2121.68,103
2120.72,128
2119.76,127
2118.79,129
2117.83,141
2116.86,138
2115.90,118
2114.93,99
2113.97,92
2113.01,102
2112.04,130
2111.08,159
2110.11,178
2109.15,192
2108.18,190
2107.22,151
2106.26,99
2105.29,76
2104.33,85
2103.36,104
2102.40,114
2101.44,131
2100.47,155
2099.51,163
2098.54,146
2097.58,115
2096.61,72
2095.65,30
2094.69,-2
2093.72,-21
2092.76,0
2091.79,59
2090.83,111
2089.86,129
2088.90,121
2087.94,102
2086.97,81
2086.01,74
2085.04,82
2084.08,89
2083.11,83
2082.15,84
2081.19,88
2080.22,77
2079.26,64
2078.29,83
2077.33,125
2076.37,149
2075.40,138
2074.44,115
2073.47,108
2072.51,106
2071.54,78
2070.58,25
2069.62,-16
2068.65,-18
2067.69,1
2066.72,17
2065.76,43
2064.79,100
2063.83,147
2062.87,148
2061.90,118
2060.94,82
2059.97,54
2059.01,33
2058.04,21
2057.08,13
2056.12,-3
2055.15,-21
2054.19,-7
2053.22,35
2052.26,56
2051.30,47
2050.33,31
2049.37,19
2048.40,42
2047.44,93
2046.47,133
2045.51,147
2044.55,144
2043.58,133
2042.62,135
2041.65,175
2040.69,226
2039.72,238
2038.76,209
2037.80,169
2036.83,124
2035.87,73
2034.90,49
2033.94,68
2032.97,104
2032.01,133
2031.05,137
2030.08,113
2029.12,73
2028.15,35
2027.19,27
2026.23,59
2025.26,93
2024.30,106
2023.33,101
2022.37,79
2021.40,71
2020.44,92
2019.48,94
2018.51,55
2017.55,13
2016.58,4
2015.62,8
2014.65,-0
2013.69,-2
2012.73,29
2011.76,95
2010.80,174
2009.83,225
2008.87,233
2007.90,208
2006.94,165
2005.98,115
2005.01,61
2004.05,10
2003.08,-19
2002.12,-9
2001.15,21
2000.19,46
1999.23,46
1998.26,20
1997.30,-8
1996.33,-23
1995.37,-37
1994.41,-43
1993.44,-26
1992.48,-4
1991.51,15
1990.55,25
1989.58,32
1988.62,50
1987.66,78
1986.69,95
1985.73,87
1984.76,62
1983.80,47
1982.83,74
1981.87,132
1980.91,158
1979.94,111
1978.98,18
1978.01,-58
1977.05,-75
1976.08,-43
1975.12,-13
1974.16,-21
1973.19,-59
1972.23,-85
1971.26,-65
1970.30,-2
1969.34,64
1968.37,98
1967.41,94
1966.44,74
1965.48,43
1964.51,20
1963.55,19
1962.59,27
1961.62,48
1960.66,65
1959.69,27
1958.73,-54
1957.76,-105
1956.80,-100
1955.84,-69
1954.87,-25
1953.91,1
1952.94,15
1951.98,33
1951.01,29
1950.05,7
1949.09,-4
1948.12,5
1947.16,11
1946.19,3
1945.23,-10
1944.27,-11
1943.30,13
1942.34,56
1941.37,98
1940.41,114
1939.44,87
1938.48,40
1937.52,12
1936.55,-4
1935.59,-15
1934.62,-7
1933.66,10
1932.69,24
1931.73,42
1930.77,53
1929.80,40
1928.84,14
1927.87,-8
1926.91,-35
1925.94,-61
1924.98,-50
1924.02,-22
1923.05,-6
1922.09,4
1921.12,20
1920.16,43
1919.20,64
1918.23,86
1917.27,106
1916.30,104
1915.34,64
1914.37,9
1913.41,-34
1912.45,-72
1911.48,-98
1910.52,-89
1909.55,-57
1908.59,-44
1907.62,-63
1906.66,-97
1905.70,-115
1904.73,-103
1903.77,-91
1902.80,-91
1901.84,-78
1900.87,-50
1899.91,-48
1898.95,-74
1897.98,-78
1897.02,-41
1896.05,11
1895.09,32
1894.13,7
1893.16,-19
1892.20,-29
1891.23,-46
1890.27,-78
1889.30,-112
1888.34,-133
1887.38,-123
1886.41,-82
1885.45,-27
1884.48,15
1883.52,14
1882.55,-36
1881.59,-89
1880.63,-101
1879.66,-91
1878.70,-82
1877.73,-79
1876.77,-98
1875.80,-130
1874.84,-130
1873.88,-81
1872.91,-16
1871.95,16
1870.98,-13
1870.02,-87
1869.06,-153
1868.09,-162
1867.13,-101
1866.16,-30
1865.20,-14
1864.23,-39
1863.27,-88
1862.31,-143
1861.34,-177
1860.38,-183
1859.41,-174
1858.45,-161
1857.48,-136
1856.52,-100
1855.56,-65
1854.59,-42
1853.63,-38
1852.66,-38
1851.70,-48
1850.73,-100
1849.77,-150
1848.81,-154
1847.84,-133
1846.88,-105
1845.91,-80
1844.95,-66
1843.98,-50
1843.02,-30
1842.06,-5
1841.09,11
1840.13,-25
1839.16,-106
1838.20,-163
1837.24,-166
1836.27,-127
1835.31,-73
1834.34,-36
1833.38,-37
1832.41,-70
1831.45,-113
1830.49,-147
1829.52,-151
1828.56,-128
1827.59,-93
1826.63,-58
1825.66,-29
1824.70,-2
1823.74,6
1822.77,-23
1821.81,-26
1820.84,-22
1819.88,-59
1818.91,-90
1817.95,-88
1816.99,-81
1816.02,-88
1815.06,-100
1814.09,-96
1813.13,-74
1812.17,-40
1811.20,3
1810.24,39
1809.27,50
1808.31,41
1807.34,40
1806.38,42
1805.42,24
1804.45,2
1803.49,-10
1802.52,-18
1801.56,-23
1800.59,-30
1799.63,-39
1798.67,-32
1797.70,-2
1796.74,38
1795.77,62
1794.81,54
1793.84,39
1792.88,40
1791.92,48
1790.95,53
1789.99,50
1789.02,22
1788.06,-23
1787.10,-51
1786.13,-43
1785.17,-7
1784.20,49
1783.24,116
1782.27,149
1781.31,129
1780.35,134
1779.38,166
1778.42,154
1777.45,131
1776.49,154
1775.52,189
1774.56,185
1773.60,140
1772.63,93
1771.67,85
1770.70,129
1769.74,205
1768.77,280
1767.81,328
1766.85,344
1765.88,341
1764.92,345
1763.95,373
1762.99,433
1762.03,507
1761.06,575
1760.10,635
1759.13,674
1758.17,677
1757.20,659
1756.24,669
1755.28,739
1754.31,863
1753.35,1016
1752.38,1179
1751.42,1324
1750.45,1453
1749.49,1617
1748.53,1852
1747.56,2166
1746.60,2517
1745.63,2870
1744.67,3226
1743.70,3658
1742.74,4188
1741.78,4751
1740.81,5307
1739.85,5867
1738.88,6442
1737.92,7026
1736.96,7604
1735.99,8202
1735.03,8843
1734.06,9520
1733.10,10233
1732.13,10982
1731.17,11732
1730.21,12496
1729.24,13286
1728.28,13986
1727.31,14520
1726.35,14754
1725.38,14575
1724.42,14101
1723.46,13440
1722.49,12648
1721.53,11855
1720.56,11035
1719.60,10279
1718.63,9546
1717.67,8779
1716.71,7994
1715.74,7206
1714.78,6405
1713.81,5621
1712.85,4900
1711.89,4242
1710.92,3634
1709.96,3078
1708.99,2589
1708.03,2197
1707.06,1877
1706.10,1596
1705.14,1374
1704.17,1212
1703.21,1093
1702.24,979
1701.28,884
1700.31,820
1699.35,779
1698.39,742
1697.42,693
1696.46,622
1695.49,536
1694.53,465
1693.56,438
1692.60,437
1691.64,443
1690.67,459
1689.71,464
1688.74,462
1687.78,472
1686.81,484
1685.85,487
1684.89,468
1683.92,427
1682.96,374
1681.99,330
1681.03,307
1680.07,309
1679.10,324
1678.14,341
1677.17,351
1676.21,344
1675.24,339
1674.28,362
1673.32,393
1672.35,398
1671.39,355
1670.42,266
1669.46,159
1668.49,88
1667.53,95
1666.57,165
1665.60,249
1664.64,307
1663.67,317
1662.71,259
1661.74,155
1660.78,101
1659.82,135
1658.85,195
1657.89,230
1656.92,226
1655.96,201
1655.00,189
1654.03,192
1653.07,204
1652.10,225
1651.14,259
1650.17,304
1649.21,353
1648.25,398
1647.28,424
1646.32,426
1645.35,422
1644.39,436
1643.42,456
1642.46,460
1641.50,459
1640.53,480
1639.57,536
1638.60,608
1637.64,668
1636.67,712
1635.71,757
1634.75,813
1633.78,882
1632.82,971
1631.85,1083
1630.89,1194
1629.93,1299
1628.96,1458
1628.00,1653
1627.03,1902
1626.07,2227
1625.10,2734
1624.14,3424
1623.18,4388
1622.21,5688
1621.25,7418
1620.28,9731
1619.32,12664
1618.35,16054
1617.39,19766
1616.43,23545
1615.46,26513
1614.50,28946
1613.53,29382
1612.57,28382
1611.60,26380
1610.64,23365
1609.68,20173
1608.71,17043
1607.75,14155
1606.78,11740
1605.82,9787
1604.86,8189
1603.89,6913
1602.93,5883
1601.96,4989
1601.00,4237
1600.03,3528
1599.07,2959
1598.11,2482
1597.14,2120
1596.18,1838
1595.21,1609
1594.25,1408
1593.28,1227
1592.32,1056
1591.36,903
1590.39,794
1589.43,737
1588.46,704
1587.50,683
1586.53,679
1585.57,682
1584.61,653
1583.64,599
1582.68,556
1581.71,530
1580.75,506
1579.79,503
1578.82,539
1577.86,592
1576.89,617
1575.93,584
1574.96,496
1574.00,383
1573.04,302
1572.07,267
1571.11,259
1570.14,270
1569.18,263
1568.21,212
1567.25,149
1566.29,103
1565.32,72
1564.36,61
1563.39,76
1562.43,102
1561.46,112
1560.50,103
1559.54,91
1558.57,102
1557.61,132
1556.64,163
1555.68,168
1554.72,147
1553.75,127
1552.79,118
1551.82,108
1550.86,95
1549.89,95
1548.93,112
1547.97,127
1547.00,110
1546.04,55
1545.07,-6
1544.11,-36
1543.14,-28
1542.18,-1
1541.22,10
1540.25,-7
1539.29,-40
1538.32,-73
1537.36,-95
1536.39,-92
1535.43,-76
1534.47,-62
1533.50,-14
1532.54,74
1531.57,129
1530.61,123
1529.64,78
1528.68,32
1527.72,6
1526.75,0
1525.79,18
1524.82,55
1523.86,80
1522.90,66
1521.93,33
1520.97,5
1520.00,-26
1519.04,-30
1518.07,11
1517.11,61
1516.15,85
1515.18,70
1514.22,33
1513.25,1
1512.29,-4
1511.32,17
1510.36,36
1509.40,24
1508.43,9
1507.47,42
1506.50,107
1505.54,167
1504.57,177
1503.61,141
1502.65,101
1501.68,90
1500.72,96
1499.75,85
1498.79,42
1497.83,-3
1496.86,1
1495.90,73
1494.93,143
1493.97,136
1493.00,68
1492.04,-2
1491.08,-30
1490.11,-0
1489.15,54
1488.18,87
1487.22,84
1486.25,79
1485.29,105
1484.33,135
1483.36,140
1482.40,141
1481.43,162
1480.47,197
1479.50,234
1478.54,271
1477.58,305
1476.61,335
1475.65,354
1474.68,358
1473.72,351
1472.76,347
1471.79,345
1470.83,356
1469.86,408
1468.90,499
1467.93,595
1466.97,677
1466.01,751
1465.04,827
1464.08,906
1463.11,998
1462.15,1097
1461.18,1142
1460.22,1124
1459.26,1124
1458.29,1167
1457.33,1231
1456.36,1285
1455.40,1309
1454.43,1289
1453.47,1225
1452.51,1145
1451.54,1089
1450.58,1069
1449.61,1063
1448.65,1056
1447.69,1035
1446.72,965
1445.76,880
1444.79,835
1443.83,840
1442.86,876
1441.90,926
1440.94,961
1439.97,932
1439.01,820
1438.04,697
1437.08,635
1436.11,631
1435.15,646
1434.19,656
1433.22,648
1432.26,612
1431.29,543
1430.33,464
1429.36,419
1428.40,422
1427.44,432
1426.47,457
1425.51,523
1424.54,551
1423.58,552
1422.62,581
1421.65,662
1420.69,780
1419.72,910
1418.76,1029
1417.79,1122
1416.83,1187
1415.87,1225
1414.90,1261
1413.94,1315
1412.97,1392
1412.01,1440
1411.04,1432
1410.08,1375
1409.12,1274
1408.15,1139
1407.19,997
1406.22,887
1405.26,823
1404.29,763
1403.33,689
1402.37,634
1401.40,591
1400.44,548
1399.47,530
1398.51,539
1397.55,538
1396.58,500
1395.62,458
1394.65,445
1393.69,448
1392.72,476
1391.76,491
1390.80,455
1389.83,393
1388.87,346
1387.90,333
1386.94,337
1385.97,332
1385.01,303
1384.05,276
1383.08,302
1382.12,379
1381.15,457
1380.19,515
1379.22,546
1378.26,555
1377.30,566
1376.33,596
1375.37,630
1374.40,657
1373.44,687
1372.47,729
1371.51,775
1370.55,806
1369.58,796
1368.62,732
1367.65,654
1366.69,612
1365.73,608
1364.76,600
1363.80,575
1362.83,548
1361.87,547
1360.90,580
1359.94,616
1358.98,610
1358.01,557
1357.05,492
1356.08,447
1355.12,423
1354.15,407
1353.19,407
1352.23,427
1351.26,422
1350.30,410
1349.33,417
1348.37,412
1347.40,395
1346.44,398
1345.48,427
1344.51,453
1343.55,466
1342.58,476
1341.62,486
1340.66,500
1339.69,516
1338.73,517
1337.76,501
1336.80,487
1335.83,489
1334.87,502
1333.91,519
1332.94,545
1331.98,612
1331.01,711
1330.05,781
1329.08,828
1328.12,871
1327.16,916
1326.19,956
1325.23,989
1324.26,1022
1323.30,1061
1322.33,1104
1321.37,1151
1320.41,1209
1319.44,1261
1318.48,1326
1317.51,1413
1316.55,1512
1315.59,1631
1314.62,1787
1313.66,1967
1312.69,2130
1311.73,2242
1310.76,2323
1309.80,2409
1308.84,2526
1307.87,2660
1306.91,2784
1305.94,2898
1304.98,3013
1304.01,3118
1303.05,3187
1302.09,3281
1301.12,3397
1300.16,3582
1299.19,3852
1298.23,4191
1297.26,4568
1296.30,4944
1295.34,5304
1294.37,5664
1293.41,6003
1292.44,6278
1291.48,6489
1290.52,6661
1289.55,6804
1288.59,6896
1287.62,6943
1286.66,6960
1285.69,6928
1284.73,6794
1283.77,6597
1282.80,6374
1281.84,6183
1280.87,6058
1279.91,5969
1278.94,5860
1277.98,5684
1277.02,5418
1276.05,5076
1275.09,4711
1274.12,4373
1273.16,4067
1272.19,3802
1271.23,3561
1270.27,3352
1269.30,3165
1268.34,2979
1267.37,2801
1266.41,2646
1265.45,2495
1264.48,2375
1263.52,2287
1262.55,2169
1261.59,2015
1260.62,1848
1259.66,1693
1258.70,1558
1257.73,1448
1256.77,1365
1255.80,1300
1254.84,1209
1253.87,1082
1252.91,944
1251.95,829
1250.98,755
1250.02,711
1249.05,684
1248.09,677
1247.12,690
1246.16,707
1245.20,708
1244.23,696
1243.27,680
1242.30,659
1241.34,630
1240.38,591
1239.41,552
1238.45,518
1237.48,487
1236.52,482
1235.55,475
1234.59,436
1233.63,378
1232.66,311
1231.70,241
1230.73,172
1229.77,117
1228.80,90
1227.84,97
1226.88,120
1225.91,136
1224.95,152
1223.98,174
1223.02,194
1222.05,200
1221.09,196
1220.13,203
1219.16,224
1218.20,215
1217.23,166
1216.27,111
1215.30,74
1214.34,57
1213.38,45
1212.41,26
1211.45,-4
1210.48,-25
1209.52,0
1208.56,66
1207.59,127
1206.63,164
1205.66,187
1204.70,217
1203.73,267
1202.77,333
1201.81,394
1200.84,423
1199.88,412
1198.91,374
1197.95,351
1196.98,368
1196.02,420
1195.06,482
1194.09,535
1193.13,577
1192.16,618
1191.20,676
1190.23,757
1189.27,833
1188.31,891
1187.34,943
1186.38,1004
1185.41,1069
1184.45,1123
1183.49,1167
1182.52,1203
1181.56,1232
1180.59,1280
1179.63,1363
1178.66,1467
1177.70,1554
1176.74,1591
1175.77,1578
1174.81,1521
1173.84,1435
1172.88,1333
1171.91,1224
1170.95,1103
1169.99,960
1169.02,807
1168.06,683
1167.09,579
1166.13,489
1165.16,407
1164.20,349
1163.24,312
1162.27,285
1161.31,262
1160.34,246
1159.38,245
1158.42,250
1157.45,259
1156.49,269
1155.52,289
1154.56,312
1153.59,321
1152.63,311
1151.67,292
1150.70,270
1149.74,252
1148.77,264
1147.81,294
1146.84,324
1145.88,362
1144.92,413
1143.95,468
1142.99,505
1142.02,519
1141.06,535
1140.09,559
1139.13,564
1138.17,561
1137.20,566
1136.24,597
1135.27,664
1134.31,761
1133.35,841
1132.38,891
1131.42,970
1130.45,1102
1129.49,1258
1128.52,1399
1127.56,1507
1126.60,1601
1125.63,1714
1124.67,1856
1123.70,2004
1122.74,2150
1121.77,2280
1120.81,2387
1119.85,2475
1118.88,2546
1117.92,2604
1116.95,2606
1115.99,2548
1115.02,2488
1114.06,2438
1113.10,2388
1112.13,2324
1111.17,2243
1110.20,2160
1109.24,2105
1108.28,2087
1107.31,2087
1106.35,2088
1105.38,2086
1104.42,2067
1103.45,2038
1102.49,2027
1101.53,2062
1100.56,2127
1099.60,2235
1098.63,2401
1097.67,2588
1096.70,2730
1095.74,2782
1094.78,2744
1093.81,2636
1092.85,2485
1091.88,2337
1090.92,2179
1089.95,1986
1088.99,1780
1088.03,1571
1087.06,1379
1086.10,1237
1085.13,1130
1084.17,1011
1083.21,897
1082.24,806
1081.28,738
1080.31,679
1079.35,617
1078.38,552
1077.42,491
1076.46,436
1075.49,399
1074.53,384
1073.56,368
1072.60,345
1071.63,314
1070.67,275
1069.71,214
1068.74,163
1067.78,188
1066.81,255
1065.85,311
1064.88,325
1063.92,298
1062.96,250
1061.99,197
1061.03,145
1060.06,121
1059.10,131
1058.13,159
1057.17,199
1056.21,236
1055.24,250
1054.28,225
1053.31,207
1052.35,227
1051.39,260
1050.42,289
1049.46,303
1048.49,303
1047.53,294
1046.56,289
1045.60,299
1044.64,320
1043.67,338
1042.71,352
1041.74,369
1040.78,399
1039.81,442
1038.85,484
1037.89,508
1036.92,502
1035.96,483
1034.99,460
1034.03,425
1033.06,379
1032.10,341
1031.14,334
1030.17,368
1029.21,428
1028.24,479
1027.28,493
1026.32,471
1025.35,436
1024.39,415
1023.42,415
1022.46,428
1021.49,449
1020.53,470
1019.57,474
1018.60,460
1017.64,440
1016.67,426
1015.71,423
1014.74,431
1013.78,434
1012.82,419
1011.85,384
1010.89,341
1009.92,309
1008.96,314
1007.99,369
1007.03,444
1006.07,499
1005.10,536
1004.14,559
1003.17,578
1002.21,612
1001.25,679
1000.28,752
999.32,756
998.35,723
997.39,688
996.42,672
995.46,674
994.50,679
993.53,659
992.57,597
991.60,521
990.64,457
989.67,415
988.71,388
987.75,363
986.78,334
985.82,303
984.85,275
983.89,250
982.92,219
981.96,181
981.00,146
980.03,121
979.07,107
978.10,97
977.14,86
976.18,78
975.21,74
974.25,71
973.28,61
972.32,40
971.35,32
970.39,70
969.43,125
968.46,155
967.50,131
966.53,69
965.57,10
964.60,-11
963.64,-1
962.68,34
961.71,86
960.75,126
959.78,132
958.82,107
957.85,71
956.89,40
955.93,12
954.96,-12
954.00,-14
953.03,8
952.07,44
951.11,83
950.14,128
949.18,137
948.21,109
947.25,103
946.28,125
945.32,146
944.36,138
943.39,96
942.43,53
941.46,48
940.50,79
939.53,126
938.57,170
937.61,202
936.64,213
935.68,198
934.71,165
933.75,146
932.78,162
931.82,201
930.86,234
929.89,240
928.93,223
927.96,212
927.00,218
926.04,230
925.07,241
924.11,254
923.14,272
922.18,290
921.21,309
920.25,330
919.29,342
918.32,341
917.36,332
916.39,325
915.43,332
914.46,361
913.50,408
912.54,443
911.57,452
910.61,443
909.64,435
908.68,453
907.71,511
906.75,564
905.79,576
904.82,571
903.86,590
902.89,653
901.93,747
900.96,827
900.00,860
899.04,888
898.07,906
897.11,899
896.14,883
895.18,889
894.22,937
893.25,1013
892.29,1102
891.32,1199
890.36,1298
889.39,1392
888.43,1469
887.47,1524
886.50,1563
885.54,1604
884.57,1633
883.61,1655
882.64,1671
881.68,1671
880.72,1633
879.75,1557
878.79,1483
877.82,1451
876.86,1462
875.89,1505
874.93,1562
873.97,1612
873.00,1646
872.04,1693
871.07,1782
870.11,1904
869.15,2036
868.18,2179
867.22,2360
866.25,2584
865.29,2885
864.32,3285
863.36,3810
862.40,4428
861.43,5051
860.47,5571
859.50,6009
858.54,6244
857.57,6318
856.61,6256
855.65,6058
854.68,5739
853.72,5346
852.75,4914
851.79,4431
850.82,4011
849.86,3652
848.90,3339
847.93,3061
846.97,2807
846.00,2576
845.04,2353
844.08,2152
843.11,1997
842.15,1884
841.18,1797
840.22,1726
839.25,1672
838.29,1636
837.33,1604
836.36,1555
835.40,1485
834.43,1419
833.47,1399
832.50,1393
831.54,1360
830.58,1351
829.61,1368
828.65,1388
827.68,1388
826.72,1368
825.75,1342
824.79,1312
823.83,1283
822.86,1269
821.90,1272
820.93,1277
819.97,1253
819.01,1192
818.04,1134
817.08,1101
816.11,1095
815.15,1107
814.18,1126
813.22,1149
812.26,1160
811.29,1149
810.33,1136
809.36,1131
808.40,1130
807.43,1108
806.47,1074
805.51,1035
804.54,984
803.58,938
802.61,919
801.65,945
800.68,1021
799.72,1162
798.76,1325
797.79,1490
796.83,1647
795.86,1771
794.90,1839
793.94,1908
792.97,1827
792.01,1626
791.04,1399
790.08,1168
789.11,933
788.15,734
787.19,600
786.22,513
785.26,456
784.29,416
783.33,386
782.36,365
781.40,370
780.44,386
779.47,369
778.51,322
777.54,275
776.58,248
775.61,231
774.65,204
773.69,168
772.72,117
771.76,75
770.79,68
769.83,102
768.87,149
767.90,169
766.94,173
765.97,176
765.01,181
764.04,184
763.08,178
762.12,150
761.15,123
760.19,118
759.22,116
758.26,100
757.29,67
756.33,28
755.37,-14
754.40,-30
753.44,-17
752.47,2
751.51,4
750.54,-17
749.58,-40
748.62,-41
747.65,-18
746.69,20
745.72,56
744.76,72
743.79,59
742.83,21
741.87,-14
740.90,-22
739.94,-3
738.97,27
738.01,51
737.05,76
736.08,98
735.12,117
734.15,143
733.19,171
732.22,191
731.26,189
730.30,168
729.33,156
728.37,168
727.40,189
726.44,195
725.47,168
724.51,130
723.55,95
722.58,57
721.62,27
720.65,10
719.69,4
718.72,-2
717.76,9
716.80,44
715.83,93
714.87,146
713.90,190
712.94,218
711.98,239
711.01,282
710.05,360
709.08,475
708.12,624
707.15,799
706.19,973
705.23,1139
704.26,1309
703.30,1419
702.33,1458
701.37,1441
700.40,1327
699.44,1093
698.48,840
697.51,590
696.55,373
695.58,221
694.62,152
693.65,124
692.69,98
691.73,74
690.76,44
689.80,-4
688.83,-73
687.87,-65
686.91,274
685.94,544
684.98,512
684.01,350
683.05,426
682.08,608
681.12,358
680.16,76
679.19,-26
678.23,47
677.26,158
676.30,179
675.33,148
674.37,101
673.41,53
672.44,18
671.48,4
670.51,-6
669.55,-38
668.58,-59
667.62,-63
666.66,-65
665.69,-73
664.73,-77
663.76,-48
662.80,-18
661.84,1
660.87,14
659.91,25
658.94,30
657.98,15
657.01,-10
656.05,-22
655.09,-19
654.12,-8
653.16,-3
652.19,0
651.23,24
650.26,43
649.30,46
648.34,42
647.37,50
646.41,73
645.44,113
644.48,161
643.51,204
642.55,237
641.59,259
640.62,277
639.66,346
638.69,530
637.73,865
636.77,1415
635.80,2206
634.84,3152
633.87,4017
632.91,4867
631.94,5356
630.98,5454
630.02,5204
629.05,4455
628.09,3175
627.12,2205
626.16,1537
625.19,1093
624.23,794
623.27,636
622.30,563
621.34,488
620.37,444
619.41,430
618.44,433
617.48,452
616.52,471
615.55,495
614.59,526
613.62,556
612.66,571
611.70,556
610.73,534
609.77,526
608.80,528
607.84,537
606.87,546
605.91,553
604.95,560
603.98,566
603.02,557
602.05,527
601.09,479
600.12,430
599.16,413
598.20,406
597.23,385
596.27,347
595.30,301
594.34,258
593.37,230
592.41,234
591.45,257
590.48,276
589.52,272
588.55,237
587.59,192
586.62,161
585.66,141
584.70,126
583.73,115
582.77,119
581.80,147
580.84,165
579.88,163
578.91,148
577.95,135
576.98,139
576.02,173
575.05,224
574.09,268
573.13,287
572.16,271
571.20,229
570.23,182
569.27,140
568.30,109
567.34,93
566.38,93
565.41,106
564.45,114
563.48,116
562.52,120
561.55,122
560.59,106
559.63,55
558.66,12
557.70,-9
556.73,-4
555.77,23
554.81,62
553.84,84
552.88,87
551.91,82
550.95,82
549.98,97
549.02,130
548.06,153
547.09,138
546.13,99
545.16,60
544.20,46
543.23,61
542.27,75
541.31,82
540.34,78
539.38,59
538.41,22
537.45,-7
536.48,-10
535.52,-6
534.56,-0
533.59,7
532.63,23
531.66,43
530.70,52
529.74,54
528.77,54
527.81,57
526.84,63
525.88,64
524.91,64
523.95,64
522.99,59
522.02,50
521.06,48
520.09,54
519.13,52
518.16,46
517.20,38
516.24,25
515.27,-7
514.31,-34
513.34,-33
512.38,-11
511.41,13
510.45,12
509.49,-11
508.52,-25
507.56,-22
506.59,-0
505.63,37
504.67,76
503.70,90
502.74,87
501.77,78
500.81,72
499.84,70
498.88,63
497.92,46
496.95,25
495.99,11
495.02,11
494.06,26
493.09,42
492.13,48
491.17,48
490.20,46
489.24,47
488.27,61
487.31,87
486.34,110
485.38,130
484.42,147
483.45,157
482.49,145
481.52,142
480.56,148
479.60,158
478.63,169
477.67,178
476.70,181
475.74,171
474.77,153
473.81,136
472.85,127
471.88,136
470.92,161
469.95,193
468.99,226
468.02,253
467.06,271
466.10,284
465.13,311
464.17,354
463.20,403
462.24,443
461.27,468
460.31,483
459.35,494
458.38,512
457.42,544
456.45,593
455.49,653
454.53,701
453.56,725
452.60,724
451.63,709
450.67,702
449.70,705
448.74,720
447.78,743
446.81,769
445.85,784
444.88,783
443.92,781
442.95,769
441.99,743
441.03,705
440.06,674
439.10,659
438.13,642
437.17,621
436.20,600
435.24,587
434.28,569
433.31,534
432.35,493
431.38,457
430.42,437
429.45,436
428.49,445
427.53,450
426.56,441
425.60,411
424.63,363
423.67,328
422.71,314
421.74,314
420.78,324
419.81,339
418.85,355
417.88,356
416.92,338
415.96,309
414.99,279
414.03,263
413.06,254
412.10,252
411.13,258
410.17,273
409.21,293
408.24,310
407.28,315
406.31,314
405.35,309
404.38,303
403.42,302
402.46,304
401.49,298
400.53,279
399.56,249
398.60,211
397.64,163
396.67,120
395.71,99
394.74,103
393.78,127
392.81,154
391.85,166
390.89,151
389.92,109
388.96,54
387.99,17
387.03,24
386.06,49
385.10,80
384.14,103
383.17,112
382.21,103
381.24,85
380.28,62
379.31,35
378.35,7
377.39,-17
376.42,-27
375.46,-21
374.49,-6
373.53,5
372.57,0
371.60,-12
370.64,-22
369.67,-27
368.71,-28
367.74,-26
366.78,-28
365.82,-29
364.85,-22
363.89,-8
362.92,11
361.96,28
360.99,34
360.03,26
359.07,8
358.10,-11
357.14,-4
356.17,37
355.21,90
354.24,137
353.28,160
352.32,138
351.35,66
350.39,-5
349.42,-57
348.46,-80
347.50,-77
346.53,-54
345.57,-40
344.60,-32
343.64,-27
342.67,-23
341.71,-30
340.75,-55
339.78,-81
338.82,-96
337.85,-96
336.89,-88
335.92,-98
334.96,-118
334.00,-137
333.03,-148
332.07,-155
331.10,-167
330.14,-177
329.17,-174
328.21,-155
327.25,-120
326.28,-90
325.32,-76
324.35,-77
323.39,-86
322.43,-97
321.46,-92
320.50,-71
319.53,-56
318.57,-61
317.60,-90
316.64,-116
315.68,-115
314.71,-98
313.75,-73
312.78,-46
311.82,-21
310.85,-0
309.89,11
308.93,8
307.96,-13
307.00,-49
306.03,-84
305.07,-91
304.10,-60
303.14,3
302.18,75
301.21,119
300.25,138
299.28,138
298.32,126
297.36,114
296.39,133
295.43,179
294.46,235
293.50,288
292.53,330
291.57,360
290.61,397
289.64,448
288.68,515
287.71,600
286.75,706
285.78,828
284.82,963
283.86,1102
282.89,1236
281.93,1350
280.96,1449
280.00,1521
279.03,1561
278.07,1568
277.11,1531
276.14,1472
275.18,1418
274.21,1372
273.25,1331
272.28,1304
271.32,1275
270.36,1247
269.39,1221
268.43,1194
267.46,1158
266.50,1107
265.54,1051
264.57,992
263.61,934
262.64,876
261.68,824
260.71,785
259.75,757
258.79,735
257.82,704
256.86,659
255.89,610
254.93,566
253.96,532
253.00,514
252.04,513
251.07,512
250.11,504
249.14,489
248.18,468
247.21,446
246.25,419
245.29,390
244.32,359
243.36,331
242.39,311
241.43,300
240.47,297
239.50,299
238.54,296
237.57,286
236.61,277
235.64,273
234.68,278
233.72,296
232.75,315
231.79,327
230.82,332
229.86,331
228.89,328
227.93,341
226.97,357
226.00,365
225.04,359
224.07,344
223.11,322
222.14,296
221.18,272
220.22,256
219.25,241
218.29,229
217.32,225
216.36,223
215.40,215
214.43,184
213.47,134
212.50,94
211.54,78
210.57,91
209.61,124
208.65,146
207.68,141
206.72,105
205.75,46
204.79,-3
203.82,-12
202.86,-0
201.90,19
200.93,30
199.97,22
199.00,7
198.04,-2
197.07,1
196.11,16
195.15,27
194.18,30
193.22,34
192.25,44
191.29,61
190.33,72
189.36,71
188.40,62
187.43,52
186.47,46
185.50,60
184.54,83
183.58,103
182.61,108
181.65,92
180.68,63
179.72,26
178.75,-5
177.79,-22
176.83,-10
175.86,12
174.90,25
173.93,29
172.97,33
172.00,20
171.04,-10
170.08,-55
169.11,-107
168.15,-161
167.18,-204
166.22,-220
165.26,-215
164.29,-203
163.33,-196
162.36,-194
161.40,-179
160.43,-157
159.47,-134
158.51,-115
157.54,-100
156.58,-90
155.61,-85
154.65,-87
153.68,-92
152.72,-92
151.76,-90
150.79,-85
149.83,-69
148.86,-33
147.90,36
146.93,0
145.97,74
145.01,141
144.04,200
143.08,260
142.11,323
141.15,375
140.19,406
139.22,422
138.26,390
137.29,321
136.33,249
135.36,202
134.40,138
133.44,60
132.47,0
131.51,-14
130.54,19
129.58,102
128.61,189
127.65,252
126.69,273
125.72,249
124.76,198
123.79,147
122.83,108
121.86,92
120.90,105
119.94,144
118.97,183
118.01,216
117.04,236
116.08,231
115.11,197
114.15,156
113.19,123
112.22,113
111.26,254
110.29,291
109.33,332
108.37,370
107.40,396
106.44,386
105.47,356
104.51,326
103.54,304
102.58,290
101.62,270
100.65,345
99.69,332
98.72,323
97.76,304
96.79,266
95.83,226
94.87,202
93.90,214
92.94,269
91.97,320
91.01,360
90.04,392
89.08,430
88.12,533
87.15,551
86.19,528
85.22,481
84.26,435
83.30,391
82.33,360
81.37,338
80.40,0
79.44,-5
78.47,11
77.51,56
76.55,-2
