Created As Omnic File, PLAS 244
Raman Shift / cm-1,INT
3418.58,-105
3417.61,-86
3416.65,-59
3415.68,-37
3414.72,-21
3413.76,-12
3412.79,-22
3411.83,-56
3410.86,-99
3409.90,-117
3408.94,-79
3407.97,-19
3407.01,11
3406.04,0
3405.08,-9
3404.11,22
3403.15,72
3402.19,94
3401.22,61
3400.26,4
3399.29,-21
3398.33,-37
3397.36,-41
3396.40,-19
3395.44,-14
3394.47,-23
3393.51,-16
3392.54,13
3391.58,59
3390.61,111
3389.65,127
3388.69,74
3387.72,15
3386.76,-4
3385.79,18
3384.83,39
3383.87,17
3382.90,0
3381.94,12
3380.97,16
3380.01,-13
3379.04,-62
3378.08,-76
3377.12,-45
3376.15,16
3375.19,69
3374.22,95
3373.26,98
3372.29,70
3371.33,29
3370.37,-12
3369.40,-48
3368.44,-57
3367.47,-50
3366.51,-61
3365.54,-89
3364.58,-70
3363.62,-40
3362.65,-28
3361.69,-33
3360.72,-58
3359.76,-82
3358.80,-72
3357.83,-35
3356.87,14
3355.90,41
3354.94,17
3353.97,-33
3353.01,-102
3352.05,-132
3351.08,-95
3350.12,-38
3349.15,2
3348.19,16
3347.22,16
3346.26,25
3345.30,50
3344.33,79
3343.37,67
3342.40,41
3341.44,29
3340.47,14
3339.51,33
3338.55,56
3337.58,45
3336.62,23
3335.65,0
3334.69,-14
3333.73,-6
3332.76,14
3331.80,49
3330.83,67
3329.87,27
3328.90,-54
3327.94,-108
3326.98,-89
3326.01,-31
3325.05,39
3324.08,83
3323.12,60
3322.15,11
3321.19,29
3320.23,78
3319.26,93
3318.30,86
3317.33,83
3316.37,72
3315.40,58
3314.44,59
3313.48,41
3312.51,22
3311.55,41
3310.58,56
3309.62,91
3308.66,125
3307.69,108
3306.73,82
3305.76,66
3304.80,42
3303.83,19
3302.87,25
3301.91,50
3300.94,73
3299.98,110
3299.01,116
3298.05,117
3297.08,134
3296.12,126
3295.16,111
3294.19,147
3293.23,191
3292.26,225
3291.30,223
3290.33,141
3289.37,54
3288.41,41
3287.44,53
3286.48,43
3285.51,29
3284.55,57
3283.59,108
3282.62,122
3281.66,109
3280.69,110
3279.73,119
3278.76,126
3277.80,97
3276.84,29
3275.87,-22
3274.91,-20
3273.94,13
3272.98,38
3272.01,25
3271.05,0
3270.09,25
3269.12,63
3268.16,30
3267.19,-30
3266.23,-38
3265.26,-11
3264.30,-2
3263.34,-5
3262.37,14
3261.41,47
3260.44,80
3259.48,91
3258.51,52
3257.55,25
3256.59,36
3255.62,31
3254.66,25
3253.69,6
3252.73,-21
3251.77,-22
3250.80,-16
3249.84,-37
3248.87,-62
3247.91,-51
3246.94,-15
3245.98,12
3245.02,17
3244.05,16
3243.09,13
3242.12,-1
3241.16,-39
3240.19,-79
3239.23,-63
3238.27,8
3237.30,65
3236.34,66
3235.37,38
3234.41,15
3233.44,10
3232.48,23
3231.52,37
3230.55,37
3229.59,26
3228.62,2
3227.66,-16
3226.70,-29
3225.73,-71
3224.77,-81
3223.80,-49
3222.84,-40
3221.87,-54
3220.91,-61
3219.95,-43
3218.98,-18
3218.02,-9
3217.05,-22
3216.09,-32
3215.12,-14
3214.16,14
3213.20,32
3212.23,34
3211.27,0
3210.30,-47
3209.34,-59
3208.37,-50
3207.41,-50
3206.45,-55
3205.48,-48
3204.52,-48
3203.55,-53
3202.59,-37
3201.63,-13
3200.66,-1
3199.70,-21
3198.73,-50
3197.77,-69
3196.80,-78
3195.84,-60
3194.88,-37
3193.91,-34
3192.95,-22
3191.98,-7
3191.02,-21
3190.05,-36
3189.09,-34
3188.13,-23
3187.16,-4
3186.20,17
3185.23,24
3184.27,12
3183.30,7
3182.34,-1
3181.38,-22
3180.41,-16
3179.45,13
3178.48,21
3177.52,11
3176.56,22
3175.59,32
3174.63,-2
3173.66,-55
3172.70,-82
3171.73,-44
3170.77,44
3169.81,107
3168.84,108
3167.88,61
3166.91,24
3165.95,-1
3164.98,-64
3164.02,-128
3163.06,-149
3162.09,-112
3161.13,-37
3160.16,18
3159.20,9
3158.23,-42
3157.27,-54
3156.31,-21
3155.34,20
3154.38,67
3153.41,58
3152.45,-18
3151.49,-78
3150.52,-77
3149.56,-43
3148.59,-36
3147.63,-49
3146.66,-26
3145.70,33
3144.74,37
3143.77,8
3142.81,13
3141.84,32
3140.88,35
3139.91,23
3138.95,16
3137.99,19
3137.02,12
3136.06,-5
3135.09,-14
3134.13,-14
3133.16,6
3132.20,35
3131.24,36
3130.27,15
3129.31,-1
3128.34,0
3127.38,3
3126.42,-14
3125.45,-16
3124.49,25
3123.52,58
3122.56,58
3121.59,15
3120.63,-20
3119.67,-11
3118.70,-2
3117.74,-13
3116.77,-20
3115.81,-29
3114.84,-65
3113.88,-100
3112.92,-94
3111.95,-56
3110.99,1
3110.02,28
3109.06,-2
3108.09,-48
3107.13,-97
3106.17,-154
3105.20,-177
3104.24,-154
3103.27,-109
3102.31,-60
3101.34,-40
3100.38,-39
3099.42,-32
3098.45,-66
3097.49,-121
3096.52,-120
3095.56,-91
3094.60,-81
3093.63,-98
3092.67,-109
3091.70,-102
3090.74,-114
3089.77,-128
3088.81,-88
3087.85,-61
3086.88,-81
3085.92,-110
3084.95,-112
3083.99,-83
3083.02,-53
3082.06,-49
3081.10,-70
3080.13,-92
3079.17,-103
3078.20,-120
3077.24,-136
3076.27,-104
3075.31,-35
3074.35,0
3073.38,-38
3072.42,-73
3071.45,-44
3070.49,-2
3069.53,14
3068.56,39
3067.60,77
3066.63,110
3065.67,150
3064.70,179
3063.74,189
3062.78,241
3061.81,310
3060.85,346
3059.88,389
3058.92,479
3057.95,589
3056.99,660
3056.03,658
3055.06,584
3054.10,520
3053.13,505
3052.17,486
3051.20,412
3050.24,301
3049.28,208
3048.31,140
3047.35,97
3046.38,93
3045.42,92
3044.46,63
3043.49,29
3042.53,14
3041.56,44
3040.60,78
3039.63,67
3038.67,52
3037.71,56
3036.74,69
3035.78,74
3034.81,47
3033.85,2
3032.88,-13
3031.92,23
3030.96,85
3029.99,102
3029.03,58
3028.06,24
3027.10,36
3026.13,76
3025.17,95
3024.21,81
3023.24,54
3022.28,30
3021.31,11
3020.35,-39
3019.39,-61
3018.42,0
3017.46,89
3016.49,159
3015.53,188
3014.56,180
3013.60,173
3012.64,184
3011.67,190
3010.71,177
3009.74,139
3008.78,104
3007.81,113
3006.85,138
3005.89,161
3004.92,179
3003.96,173
3002.99,146
3002.03,126
3001.06,117
3000.10,116
2999.14,134
2998.17,162
2997.21,159
2996.24,135
2995.28,127
2994.32,138
2993.35,177
2992.39,192
2991.42,186
2990.46,213
2989.49,276
2988.53,337
2987.57,357
2986.60,317
2985.64,281
2984.67,299
2983.71,319
2982.74,357
2981.78,428
2980.82,502
2979.85,556
2978.89,595
2977.92,627
2976.96,653
2975.99,669
2975.03,685
2974.07,711
2973.10,736
2972.14,772
2971.17,797
2970.21,812
2969.25,865
2968.28,952
2967.32,1058
2966.35,1154
2965.39,1211
2964.42,1254
2963.46,1292
2962.50,1309
2961.53,1330
2960.57,1333
2959.60,1318
2958.64,1308
2957.67,1284
2956.71,1237
2955.75,1197
2954.78,1153
2953.82,1072
2952.85,989
2951.89,952
2950.92,954
2949.96,948
2949.00,899
2948.03,820
2947.07,730
2946.10,637
2945.14,532
2944.17,439
2943.21,399
2942.25,407
2941.28,425
2940.32,426
2939.35,414
2938.39,410
2937.43,420
2936.46,437
2935.50,449
2934.53,491
2933.57,566
2932.60,610
2931.64,603
2930.68,584
2929.71,586
2928.75,618
2927.78,688
2926.82,757
2925.85,780
2924.89,771
2923.93,764
2922.96,762
2922.00,780
2921.03,818
2920.07,845
2919.10,860
2918.14,889
2917.18,946
2916.21,979
2915.25,935
2914.28,859
2913.32,848
2912.36,897
2911.39,980
2910.43,1059
2909.46,1125
2908.50,1209
2907.53,1324
2906.57,1417
2905.61,1436
2904.64,1412
2903.68,1420
2902.71,1490
2901.75,1564
2900.78,1586
2899.82,1569
2898.86,1550
2897.89,1559
2896.93,1590
2895.96,1603
2895.00,1582
2894.03,1569
2893.07,1589
2892.11,1639
2891.14,1729
2890.18,1823
2889.21,1881
2888.25,1907
2887.29,1963
2886.32,2102
2885.36,2284
2884.39,2409
2883.43,2449
2882.46,2483
2881.50,2550
2880.54,2600
2879.57,2670
2878.61,2723
2877.64,2659
2876.68,2531
2875.71,2448
2874.75,2432
2873.79,2448
2872.82,2445
2871.86,2415
2870.89,2379
2869.93,2326
2868.96,2267
2868.00,2252
2867.04,2277
2866.07,2273
2865.11,2184
2864.14,2075
2863.18,1998
2862.22,1894
2861.25,1723
2860.29,1560
2859.32,1478
2858.36,1445
2857.39,1413
2856.43,1372
2855.47,1363
2854.50,1371
2853.54,1341
2852.57,1293
2851.61,1242
2850.64,1183
2849.68,1144
2848.72,1133
2847.75,1118
2846.79,1098
2845.82,1100
2844.86,1113
2843.89,1105
2842.93,1101
2841.97,1124
2841.00,1121
2840.04,1079
2839.07,1017
2838.11,922
2837.15,800
2836.18,684
2835.22,585
2834.25,486
2833.29,379
2832.32,291
2831.36,240
2830.40,203
2829.43,158
2828.47,105
2827.50,62
2826.54,47
2825.57,22
2824.61,-33
2823.65,-77
2822.68,-70
2821.72,-6
2820.75,56
2819.79,82
2818.82,69
2817.86,7
2816.90,-60
2815.93,-99
2814.97,-78
2814.00,-33
2813.04,-36
2812.08,-87
2811.11,-113
2810.15,-97
2809.18,-64
2808.22,-24
2807.25,-13
2806.29,-53
2805.33,-107
2804.36,-128
2803.40,-121
2802.43,-113
2801.47,-118
2800.50,-114
2799.54,-91
2798.58,-70
2797.61,-75
2796.65,-88
2795.68,-80
2794.72,-60
2793.75,-45
2792.79,-30
2791.83,-17
2790.86,-20
2789.90,-33
2788.93,-38
2787.97,-31
2787.00,2
2786.04,53
2785.08,87
2784.11,79
2783.15,13
2782.18,-110
2781.22,-202
2780.26,-202
2779.29,-175
2778.33,-163
2777.36,-142
2776.40,-112
2775.43,-123
2774.47,-165
2773.51,-158
2772.54,-131
2771.58,-132
2770.61,-149
2769.65,-193
2768.68,-218
2767.72,-200
2766.76,-186
2765.79,-192
2764.83,-204
2763.86,-190
2762.90,-135
2761.93,-90
2760.97,-108
2760.01,-128
2759.04,-113
2758.08,-91
2757.11,-78
2756.15,-94
2755.19,-122
2754.22,-134
2753.26,-129
2752.29,-98
2751.33,-44
2750.36,20
2749.40,69
2748.44,75
2747.47,20
2746.51,-75
2745.54,-144
2744.58,-173
2743.61,-172
2742.65,-138
2741.69,-92
2740.72,-74
2739.76,-96
2738.79,-138
2737.83,-169
2736.86,-183
2735.90,-186
2734.94,-168
2733.97,-140
2733.01,-124
2732.04,-127
2731.08,-143
2730.12,-137
2729.15,-102
2728.19,-71
2727.22,-40
2726.26,4
2725.29,35
2724.33,21
2723.37,-14
2722.40,-33
2721.44,-49
2720.47,-77
2719.51,-89
2718.54,-50
2717.58,24
2716.62,93
2715.65,110
2714.69,71
2713.72,0
2712.76,-55
2711.79,-80
2710.83,-94
2709.87,-93
2708.90,-73
2707.94,-88
2706.97,-133
2706.01,-183
2705.05,-244
2704.08,-268
2703.12,-231
2702.15,-186
2701.19,-168
2700.22,-170
2699.26,-204
2698.30,-259
2697.33,-265
2696.37,-210
2695.40,-175
2694.44,-189
2693.47,-214
2692.51,-225
2691.55,-196
2690.58,-130
2689.62,-69
2688.65,-53
2687.69,-71
2686.72,-78
2685.76,-52
2684.80,-40
2683.83,-40
2682.87,-21
2681.90,-36
2680.94,-93
2679.98,-121
2679.01,-98
2678.05,-58
2677.08,-37
2676.12,-19
2675.15,25
2674.19,58
2673.23,35
2672.26,0
2671.30,-24
2670.33,-36
2669.37,-59
2668.40,-96
2667.44,-120
2666.48,-115
2665.51,-79
2664.55,-42
2663.58,-46
2662.62,-89
2661.65,-113
2660.69,-105
2659.73,-121
2658.76,-146
2657.80,-113
2656.83,-65
2655.87,-41
2654.91,-49
2653.94,-98
2652.98,-146
2652.01,-153
2651.05,-127
2650.08,-105
2649.12,-125
2648.16,-164
2647.19,-187
2646.23,-188
2645.26,-163
2644.30,-134
2643.33,-100
2642.37,-34
2641.41,45
2640.44,69
2639.48,0
2638.51,-97
2637.55,-145
2636.58,-157
2635.62,-194
2634.66,-237
2633.69,-252
2632.73,-261
2631.76,-258
2630.80,-215
2629.83,-126
2628.87,-2
2627.91,112
2626.94,146
2625.98,85
2625.01,-12
2624.05,-81
2623.09,-95
2622.12,-74
2621.16,-68
2620.19,-74
2619.23,-68
2618.26,-56
2617.30,-43
2616.34,-25
2615.37,-12
2614.41,-23
2613.44,-50
2612.48,-66
2611.51,-65
2610.55,-55
2609.59,-34
2608.62,3
2607.66,24
2606.69,9
2605.73,1
2604.76,-7
2603.80,4
2602.84,36
2601.87,72
2600.91,84
2599.94,54
2598.98,18
2598.02,-2
2597.05,-16
2596.09,3
2595.12,44
2594.16,67
2593.19,72
2592.23,74
2591.27,69
2590.30,46
2589.34,14
2588.37,-10
2587.41,-15
2586.44,8
2585.48,43
2584.52,28
2583.55,-38
2582.59,-92
2581.62,-93
2580.66,-59
2579.69,-25
2578.73,-13
2577.77,-46
2576.80,-98
2575.84,-113
2574.87,-88
2573.91,-43
2572.95,4
2571.98,-1
2571.02,-70
2570.05,-123
2569.09,-115
2568.12,-54
2567.16,27
2566.20,70
2565.23,43
2564.27,-11
2563.30,-54
2562.34,-59
2561.37,-18
2560.41,37
2559.45,48
2558.48,10
2557.52,-31
2556.55,-40
2555.59,-7
2554.62,45
2553.66,63
2552.70,31
2551.73,-18
2550.77,-55
2549.80,-83
2548.84,-94
2547.88,-78
2546.91,-44
2545.95,-15
2544.98,-6
2544.02,0
2543.05,64
2542.09,118
2541.13,113
2540.16,50
2539.20,-17
2538.23,-27
2537.27,22
2536.30,79
2535.34,99
2534.38,95
2533.41,91
2532.45,74
2531.48,53
2530.52,33
2529.55,9
2528.59,-0
2527.63,22
2526.66,65
2525.70,95
2524.73,95
2523.77,58
2522.81,-2
2521.84,-42
2520.88,-27
2519.91,30
2518.95,65
2517.98,26
2517.02,-11
2516.06,4
2515.09,36
2514.13,79
2513.16,134
2512.20,147
2511.23,96
2510.27,44
2509.31,25
2508.34,73
2507.38,131
2506.41,153
2505.45,134
2504.48,120
2503.52,130
2502.56,168
2501.59,193
2500.63,161
2499.66,107
2498.70,98
2497.74,144
2496.77,206
2495.81,248
2494.84,242
2493.88,183
2492.91,155
2491.95,172
2490.99,188
2490.02,213
2489.06,258
2488.09,280
2487.13,247
2486.16,188
2485.20,152
2484.24,176
2483.27,241
2482.31,275
2481.34,281
2480.38,282
2479.41,256
2478.45,223
2477.49,199
2476.52,166
2475.56,125
2474.59,92
2473.63,89
2472.66,119
2471.70,135
2470.74,111
2469.77,84
2468.81,68
2467.84,62
2466.88,108
2465.92,165
2464.95,160
2463.99,121
2463.02,99
2462.06,94
2461.09,78
2460.13,54
2459.17,33
2458.20,19
2457.24,-7
2456.27,-65
2455.31,-103
2454.34,-77
2453.38,-12
2452.42,52
2451.45,62
2450.49,17
2449.52,-34
2448.56,-65
2447.59,-79
2446.63,-69
2445.67,-43
2444.70,-35
2443.74,-9
2442.77,80
2441.81,157
2440.85,157
2439.88,116
2438.92,63
2437.95,17
2436.99,-8
2436.02,-24
2435.06,-39
2434.10,-42
2433.13,-24
2432.17,10
2431.20,59
2430.24,97
2429.27,107
2428.31,62
2427.35,-2
2426.38,-50
2425.42,-77
2424.45,-120
2423.49,-156
2422.52,-130
2421.56,-46
2420.60,41
2419.63,87
2418.67,86
2417.70,67
2416.74,53
2415.78,15
2414.81,-62
2413.85,-145
2412.88,-204
2411.92,-196
2410.95,-92
2409.99,39
2409.03,87
2408.06,27
2407.10,-77
2406.13,-141
2405.17,-120
2404.20,-53
2403.24,15
2402.28,88
2401.31,128
2400.35,98
2399.38,54
2398.42,38
2397.45,37
2396.49,40
2395.53,47
2394.56,0
2393.60,-32
2392.63,-58
2391.67,-90
2390.71,-109
2389.74,-80
2388.78,-16
2387.81,60
2386.85,103
2385.88,92
2384.92,60
2383.96,47
2382.99,42
2382.03,17
2381.06,17
2380.10,91
2379.13,201
2378.17,299
2377.21,362
2376.24,367
2375.28,321
2374.31,224
2373.35,98
2372.38,24
2371.42,49
2370.46,126
2369.49,167
2368.53,166
2367.56,189
2366.60,248
2365.64,273
2364.67,232
2363.71,150
2362.74,72
2361.78,68
2360.81,128
2359.85,179
2358.89,162
2357.92,84
2356.96,59
2355.99,57
2355.03,109
2354.06,184
2353.10,207
2352.14,149
2351.17,85
2350.21,58
2349.24,110
2348.28,212
2347.31,284
2346.35,285
2345.39,218
2344.42,127
2343.46,62
2342.49,32
2341.53,9
2340.57,-3
2339.60,15
2338.64,61
2337.67,104
2336.71,75
2335.74,-12
2334.78,-60
2333.82,-78
2332.85,-122
2331.89,-158
2330.92,-149
2329.96,-97
2328.99,-7
2328.03,81
2327.07,94
2326.10,66
2325.14,72
2324.17,102
2323.21,116
2322.24,0
2321.28,-67
2320.32,-111
2319.35,-109
2318.39,-82
2317.42,-48
2316.46,-18
2315.49,5
2314.53,39
2313.57,98
2312.60,135
2311.64,118
2310.67,111
2309.71,141
2308.75,153
2307.78,134
2306.82,110
2305.85,78
2304.89,54
2303.92,66
2302.96,113
2302.00,145
2301.03,126
2300.07,96
2299.10,117
2298.14,143
2297.17,181
2296.21,190
2295.25,178
2294.28,123
2293.32,103
2292.35,147
2291.39,189
2290.42,169
2289.46,101
2288.50,-2
2287.53,-85
2286.57,-77
2285.60,-22
2284.64,22
2283.68,37
2282.71,25
2281.75,25
2280.78,49
2279.82,78
2278.85,91
2277.89,65
2276.93,27
2275.96,48
2275.00,126
2274.03,246
2273.07,228
2272.10,193
2271.14,162
2270.18,158
2269.21,200
2268.25,219
2267.28,193
2266.32,164
2265.35,180
2264.39,248
2263.43,324
2262.46,378
2261.50,438
2260.53,530
2259.57,620
2258.61,594
2257.64,428
2256.68,276
2255.71,139
2254.75,177
2253.78,316
2252.82,427
2251.86,442
2250.89,398
2249.93,331
2248.96,359
2248.00,485
2247.03,444
2246.07,231
2245.11,108
2244.14,86
2243.18,87
2242.21,87
2241.25,57
2240.28,35
2239.32,49
2238.36,72
2237.39,0
2236.43,-21
2235.46,-92
2234.50,-193
2233.54,-223
2232.57,-163
2231.61,-84
2230.64,10
2229.68,64
2228.71,5
2227.75,-75
2226.79,-101
2225.82,-115
2224.86,-119
2223.89,-68
2222.93,0
2221.96,29
2221.00,23
2220.04,39
2219.07,21
2218.11,-94
2217.14,-201
2216.18,-172
2215.21,-18
2214.25,166
2213.29,248
2212.32,179
2211.36,67
2210.39,31
2209.43,70
2208.47,109
2207.50,94
2206.54,36
2205.57,4
2204.61,62
2203.64,296
2202.68,387
2201.72,439
2200.75,478
2199.79,491
2198.82,463
2197.86,407
2196.89,331
2195.93,225
2194.97,84
2194.00,-31
2193.04,-39
2192.07,65
2191.11,209
2190.14,320
2189.18,379
2188.22,394
2187.25,380
2186.29,367
2185.32,370
2184.36,370
2183.40,329
2182.43,230
2181.47,0
2180.50,-96
2179.54,-109
2178.57,-61
2177.61,1
2176.65,65
2175.68,99
2174.72,66
2173.75,-4
2172.79,-57
2171.82,-60
2170.86,0
2169.90,12
2168.93,2
2167.97,-6
2167.00,-16
2166.04,-38
2165.07,-42
2164.11,-8
2163.15,49
2162.18,67
2161.22,2
2160.25,-77
2159.29,-85
2158.32,-31
2157.36,24
2156.40,25
2155.43,-34
2154.47,-100
2153.50,-117
2152.54,-72
2151.58,-0
2150.61,39
2149.65,62
2148.68,18
2147.72,4
2146.75,49
2145.79,109
2144.83,143
2143.86,129
2142.90,51
2141.93,-69
2140.97,-158
2140.00,-159
2139.04,-109
2138.08,-61
2137.11,9
2136.15,96
2135.18,108
2134.22,46
2133.25,40
2132.29,150
2131.33,260
2130.36,273
2129.40,192
2128.43,106
2127.47,85
2126.51,95
2125.54,81
2124.58,70
2123.61,85
2122.65,72
2121.68,36
2120.72,14
2119.76,-15
2118.79,-23
2117.83,-0
2116.86,-7
2115.90,-59
2114.93,-121
2113.97,-139
2113.01,-86
2112.04,-0
2111.08,42
2110.11,49
2109.15,66
2108.18,56
2107.22,1
2106.26,-60
2105.29,-130
2104.33,-171
2103.36,-129
2102.40,-50
2101.44,20
2100.47,57
2099.51,44
2098.54,0
2097.58,-93
2096.61,-196
2095.65,-290
2094.69,-357
2093.72,-390
2092.76,-333
2091.79,-191
2090.83,-57
2089.86,10
2088.90,11
2087.94,-23
2086.97,-66
2086.01,-86
2085.04,-62
2084.08,-13
2083.11,19
2082.15,15
2081.19,-20
2080.22,-65
2079.26,-89
2078.29,-47
2077.33,-13
2076.37,33
2075.40,3
2074.44,-47
2073.47,-51
2072.51,-34
2071.54,-71
2070.58,-161
2069.62,-222
2068.65,-199
2067.69,-145
2066.72,-114
2065.76,-67
2064.79,33
2063.83,126
2062.87,159
2061.90,137
2060.94,81
2059.97,25
2059.01,-16
2058.04,-40
2057.08,0
2056.12,-38
2055.15,-98
2054.19,-122
2053.22,-74
2052.26,-10
2051.30,8
2050.33,-41
2049.37,-94
2048.40,-57
2047.44,43
2046.47,93
2045.51,66
2044.55,37
2043.58,52
2042.62,90
2041.65,137
2040.69,191
2039.72,212
2038.76,163
2037.80,60
2036.83,-66
2035.87,-236
2034.90,-261
2033.94,-208
2032.97,-134
2032.01,-68
2031.05,-36
2030.08,-66
2029.12,-150
2028.15,-229
2027.19,-203
2026.23,-76
2025.26,-3
2024.30,-23
2023.33,-32
2022.37,-23
2021.40,-20
2020.44,-17
2019.48,-40
2018.51,-96
2017.55,-138
2016.58,-126
2015.62,-100
2014.65,-102
2013.69,0
2012.73,65
2011.76,192
2010.80,327
2009.83,390
2008.87,386
2007.90,387
2006.94,360
2005.98,255
2005.01,109
2004.05,-17
2003.08,-82
2002.12,-81
2001.15,-48
2000.19,-17
1999.23,-12
1998.26,-57
1997.30,-141
1996.33,-208
1995.37,-202
1994.41,-141
1993.44,-119
1992.48,-128
1991.51,-124
1990.55,-116
1989.58,-117
1988.62,-108
1987.66,-78
1986.69,-52
1985.73,-56
1984.76,-69
1983.80,-58
1982.83,-32
1981.87,-109
1980.91,-87
1979.94,-133
1978.98,-265
1978.01,-390
1977.05,-415
1976.08,-364
1975.12,-306
1974.16,-282
1973.19,-291
1972.23,-305
1971.26,-278
1970.30,-198
1969.34,-124
1968.37,-106
1967.41,-124
1966.44,-154
1965.48,-192
1964.51,-206
1963.55,-168
1962.59,-116
1961.62,-104
1960.66,-167
1959.69,-280
1958.73,-367
1957.76,-386
1956.80,-371
1955.84,-321
1954.87,-219
1953.91,-137
1952.94,-90
1951.98,-60
1951.01,-82
1950.05,-150
1949.09,-177
1948.12,-152
1947.16,-128
1946.19,-138
1945.23,-175
1944.27,-224
1943.30,-237
1942.34,-161
1941.37,-28
1940.41,53
1939.44,28
1938.48,-50
1937.52,-121
1936.55,-170
1935.59,-175
1934.62,-134
1933.66,-89
1932.69,-58
1931.73,-21
1930.77,5
1929.80,-17
1928.84,-76
1927.87,-126
1926.91,-161
1925.94,-181
1924.98,-143
1924.02,-71
1923.05,-45
1922.09,-45
1921.12,-43
1920.16,0
1919.20,31
1918.23,110
1917.27,190
1916.30,207
1915.34,147
1914.37,64
1913.41,3
1912.45,-37
1911.48,-48
1910.52,-31
1909.55,-25
1908.59,-46
1907.62,-83
1906.66,-135
1905.70,-171
1904.73,-162
1903.77,-140
1902.80,-123
1901.84,-89
1900.87,-41
1899.91,-35
1898.95,-71
1897.98,-76
1897.02,-30
1896.05,33
1895.09,80
1894.13,73
1893.16,37
1892.20,10
1891.23,-28
1890.27,-86
1889.30,-138
1888.34,-156
1887.38,-128
1886.41,-67
1885.45,1
1884.48,50
1883.52,39
1882.55,-33
1881.59,-91
1880.63,-107
1879.66,-88
1878.70,-78
1877.73,-72
1876.77,-98
1875.80,-138
1874.84,-129
1873.88,-54
1872.91,34
1871.95,71
1870.98,29
1870.02,-68
1869.06,-118
1868.09,-71
1867.13,19
1866.16,88
1865.20,90
1864.23,37
1863.27,-21
1862.31,-51
1861.34,-65
1860.38,-85
1859.41,-104
1858.45,-92
1857.48,-46
1856.52,-0
1855.56,25
1854.59,49
1853.63,90
1852.66,131
1851.70,130
1850.73,58
1849.77,0
1848.81,-26
1847.84,18
1846.88,101
1845.91,148
1844.95,134
1843.98,137
1843.02,205
1842.06,283
1841.09,280
1840.13,169
1839.16,41
1838.20,-16
1837.24,-11
1836.27,31
1835.31,86
1834.34,109
1833.38,93
1832.41,74
1831.45,55
1830.49,12
1829.52,-34
1828.56,-45
1827.59,-23
1826.63,17
1825.66,81
1824.70,157
1823.74,178
1822.77,139
1821.81,107
1820.84,64
1819.88,5
1818.91,-14
1817.95,-3
1816.99,-13
1816.02,-44
1815.06,-55
1814.09,-90
1813.13,-79
1812.17,-76
1811.20,-45
1810.24,16
1809.27,40
1808.31,4
1807.34,-26
1806.38,-17
1805.42,-21
1804.45,-49
1803.49,-77
1802.52,-94
1801.56,-101
1800.59,-110
1799.63,-126
1798.67,-120
1797.70,-77
1796.74,-16
1795.77,29
1794.81,37
1793.84,22
1792.88,10
1791.92,2
1790.95,-10
1789.99,-32
1789.02,-74
1788.06,-134
1787.10,-183
1786.13,-197
1785.17,-164
1784.20,-81
1783.24,21
1782.27,62
1781.31,29
1780.35,-5
1779.38,-24
1778.42,-59
1777.45,-86
1776.49,-81
1775.52,0
1774.56,-36
1773.60,-96
1772.63,-157
1771.67,-194
1770.70,-186
1769.74,-134
1768.77,-73
1767.81,-42
1766.85,-54
1765.88,-90
1764.92,-128
1763.95,-142
1762.99,-115
1762.03,-68
1761.06,-49
1760.10,-53
1759.13,-76
1758.17,-133
1757.20,-210
1756.24,-258
1755.28,-247
1754.31,-193
1753.35,-127
1752.38,-90
1751.42,-113
1750.45,-165
1749.49,-176
1748.53,-145
1747.56,-127
1746.60,-121
1745.63,-108
1744.67,-96
1743.70,-92
1742.74,-85
1741.78,-72
1740.81,-63
1739.85,-62
1738.88,-57
1737.92,-57
1736.96,-82
1735.99,-110
1735.03,-109
1734.06,-82
1733.10,-45
1732.13,-11
1731.17,-79
1730.21,-85
1729.24,-68
1728.28,-18
1727.31,34
1726.35,38
1725.38,-23
1724.42,-111
1723.46,-165
1722.49,-173
1721.53,-160
1720.56,-127
1719.60,-81
1718.63,-60
1717.67,-59
1716.71,-52
1715.74,-41
1714.78,-33
1713.81,-25
1712.85,-27
1711.89,-46
1710.92,-60
1709.96,-52
1708.99,-39
1708.03,-38
1707.06,-42
1706.10,-43
1705.14,-34
1704.17,-14
1703.21,1
1702.24,5
1701.28,15
1700.31,37
1699.35,63
1698.39,74
1697.42,51
1696.46,-5
1695.49,-70
1694.53,-101
1693.56,-89
1692.60,0
1691.64,28
1690.67,35
1689.71,12
1688.74,2
1687.78,12
1686.81,24
1685.85,28
1684.89,15
1683.92,-15
1682.96,-55
1681.99,-92
1681.03,-110
1680.07,-101
1679.10,-71
1678.14,-37
1677.17,-17
1676.21,-14
1675.24,-7
1674.28,24
1673.32,57
1672.35,64
1671.39,38
1670.42,-16
1669.46,-92
1668.49,-147
1667.53,-144
1666.57,-89
1665.60,-28
1664.64,6
1663.67,-5
1662.71,-121
1661.74,-200
1660.78,-227
1659.82,-190
1658.85,-136
1657.89,-112
1656.92,-130
1655.96,-161
1655.00,-176
1654.03,-171
1653.07,-151
1652.10,-123
1651.14,-101
1650.17,-84
1649.21,-67
1648.25,-51
1647.28,-44
1646.32,-41
1645.35,-34
1644.39,-20
1643.42,-1
1642.46,-8
1641.50,-29
1640.53,-33
1639.57,-9
1638.60,22
1637.64,35
1636.67,32
1635.71,36
1634.75,51
1633.78,55
1632.82,40
1631.85,31
1630.89,34
1629.93,27
1628.96,25
1628.00,27
1627.03,-4
1626.07,0
1625.10,6
1624.14,40
1623.18,76
1622.21,92
1621.25,83
1620.28,65
1619.32,49
1618.35,39
1617.39,48
1616.43,85
1615.46,131
1614.50,181
1613.53,227
1612.57,242
1611.60,249
1610.64,277
1609.68,318
1608.71,371
1607.75,420
1606.78,443
1605.82,443
1604.86,444
1603.89,455
1602.93,457
1601.96,434
1601.00,378
1600.03,304
1599.07,243
1598.11,229
1597.14,259
1596.18,318
1595.21,385
1594.25,430
1593.28,437
1592.32,419
1591.36,408
1590.39,425
1589.43,454
1588.46,463
1587.50,452
1586.53,427
1585.57,384
1584.61,335
1583.64,269
1582.68,203
1581.71,143
1580.75,106
1579.79,117
1578.82,160
1577.86,198
1576.89,207
1575.93,188
1574.96,144
1574.00,88
1573.04,53
1572.07,48
1571.11,50
1570.14,62
1569.18,83
1568.21,87
1567.25,58
1566.29,14
1565.32,-19
1564.36,-25
1563.39,-4
1562.43,25
1561.46,46
1560.50,65
1559.54,102
1558.57,151
1557.61,189
1556.64,223
1555.68,257
1554.72,282
1553.75,294
1552.79,299
1551.82,311
1550.86,340
1549.89,378
1548.93,410
1547.97,431
1547.00,451
1546.04,470
1545.07,491
1544.11,533
1543.14,610
1542.18,716
1541.22,829
1540.25,943
1539.29,1071
1538.32,1233
1537.36,1446
1536.39,1756
1535.43,2245
1534.47,2879
1533.50,3861
1532.54,5184
1531.57,6773
1530.61,8603
1529.64,10351
1528.68,11788
1527.72,12706
1526.75,12697
1525.79,11704
1524.82,10091
1523.86,8071
1522.90,5866
1521.93,4423
1520.97,3317
1520.00,2533
1519.04,2086
1518.07,1712
1517.11,1399
1516.15,1123
1515.18,873
1514.22,660
1513.25,503
1512.29,408
1511.32,357
1510.36,311
1509.40,259
1508.43,198
1507.47,172
1506.50,173
1505.54,178
1504.57,162
1503.61,128
1502.65,90
1501.68,59
1500.72,40
1499.75,22
1498.79,-7
1497.83,-40
1496.86,-51
1495.90,-12
1494.93,32
1493.97,57
1493.00,30
1492.04,-7
1491.08,-14
1490.11,17
1489.15,97
1488.18,223
1487.22,369
1486.25,553
1485.29,792
1484.33,1030
1483.36,1235
1482.40,1379
1481.43,1433
1480.47,1406
1479.50,1285
1478.54,1087
1477.58,897
1476.61,747
1475.65,629
1474.68,574
1473.72,565
1472.76,593
1471.79,666
1470.83,766
1469.86,908
1468.90,1028
1467.93,1077
1466.97,1054
1466.01,976
1465.04,869
1464.08,786
1463.11,775
1462.15,807
1461.18,858
1460.22,916
1459.26,1003
1458.29,1141
1457.33,1367
1456.36,1655
1455.40,2076
1454.43,2662
1453.47,3364
1452.51,4136
1451.54,4928
1450.58,5530
1449.61,5727
1448.65,5513
1447.69,4619
1446.72,3360
1445.76,2437
1444.79,1750
1443.83,1285
1442.86,1044
1441.90,916
1440.94,804
1439.97,705
1439.01,573
1438.04,448
1437.08,371
1436.11,334
1435.15,326
1434.19,336
1433.22,354
1432.26,361
1431.29,355
1430.33,356
1429.36,393
1428.40,455
1427.44,482
1426.47,495
1425.51,457
1424.54,343
1423.58,223
1422.62,135
1421.65,86
1420.69,71
1419.72,75
1418.76,86
1417.79,99
1416.83,112
1415.87,131
1414.90,160
1413.94,177
1412.97,201
1412.01,240
1411.04,275
1410.08,281
1409.12,249
1408.15,192
1407.19,126
1406.22,76
1405.26,57
1404.29,54
1403.33,38
1402.37,14
1401.40,-9
1400.44,-24
1399.47,-21
1398.51,-6
1397.55,-2
1396.58,-15
1395.62,-21
1394.65,-7
1393.69,22
1392.72,73
1391.76,96
1390.80,72
1389.83,30
1388.87,-1
1387.90,0
1386.94,-3
1385.97,-11
1385.01,-30
1384.05,-47
1383.08,-36
1382.12,6
1381.15,51
1380.19,79
1379.22,88
1378.26,85
1377.30,85
1376.33,100
1375.37,130
1374.40,168
1373.44,202
1372.47,231
1371.51,257
1370.55,272
1369.58,267
1368.62,245
1367.65,223
1366.69,210
1365.73,204
1364.76,197
1363.80,203
1362.83,220
1361.87,243
1360.90,281
1359.94,320
1358.98,340
1358.01,329
1357.05,302
1356.08,276
1355.12,262
1354.15,257
1353.19,267
1352.23,296
1351.26,329
1350.30,399
1349.33,513
1348.37,736
1347.40,1064
1346.44,1545
1345.48,2208
1344.51,3000
1343.55,3845
1342.58,4731
1341.62,5397
1340.66,5718
1339.69,5719
1338.73,5309
1337.76,4614
1336.80,3895
1335.83,3234
1334.87,2613
1333.91,2102
1332.94,1675
1331.98,1405
1331.01,1275
1330.05,1177
1329.08,1128
1328.12,1082
1327.16,1024
1326.19,947
1325.23,848
1324.26,734
1323.30,633
1322.33,565
1321.37,508
1320.41,444
1319.44,378
1318.48,324
1317.51,286
1316.55,262
1315.59,254
1314.62,285
1313.66,384
1312.69,516
1311.73,577
1310.76,577
1309.80,614
1308.84,728
1307.87,870
1306.91,979
1305.94,1043
1304.98,1073
1304.01,1054
1303.05,979
1302.09,868
1301.12,726
1300.16,624
1299.19,558
1298.23,519
1297.26,496
1296.30,481
1295.34,477
1294.37,487
1293.41,477
1292.44,418
1291.48,331
1290.52,237
1289.55,152
1288.59,97
1287.62,75
1286.66,69
1285.69,60
1284.73,35
1283.77,0
1282.80,-25
1281.84,-42
1280.87,-32
1279.91,-2
1278.94,29
1277.98,45
1277.02,46
1276.05,34
1275.09,18
1274.12,9
1273.16,7
1272.19,4
1271.23,-3
1270.27,-15
1269.30,-34
1268.34,-55
1267.37,-65
1266.41,-67
1265.45,-74
1264.48,-72
1263.52,-51
1262.55,-36
1261.59,-41
1260.62,-59
1259.66,-74
1258.70,-69
1257.73,-44
1256.77,-12
1255.80,6
1254.84,4
1253.87,-5
1252.91,-20
1251.95,-48
1250.98,-80
1250.02,-101
1249.05,-106
1248.09,-99
1247.12,-82
1246.16,-63
1245.20,-52
1244.23,-49
1243.27,-45
1242.30,-37
1241.34,-32
1240.38,-40
1239.41,-63
1238.45,-81
1237.48,-74
1236.52,-44
1235.55,-16
1234.59,0
1233.63,3
1232.66,-4
1231.70,-16
1230.73,-32
1229.77,-44
1228.80,-40
1227.84,-17
1226.88,25
1225.91,80
1224.95,142
1223.98,203
1223.02,260
1222.05,322
1221.09,396
1220.13,484
1219.16,571
1218.20,645
1217.23,677
1216.27,688
1215.30,691
1214.34,686
1213.38,670
1212.41,641
1211.45,602
1210.48,569
1209.52,569
1208.56,590
1207.59,603
1206.63,602
1205.66,591
1204.70,581
1203.73,576
1202.77,573
1201.81,565
1200.84,561
1199.88,551
1198.91,537
1197.95,536
1196.98,557
1196.02,597
1195.06,639
1194.09,663
1193.13,658
1192.16,630
1191.20,581
1190.23,529
1189.27,488
1188.31,452
1187.34,433
1186.38,443
1185.41,471
1184.45,492
1183.49,516
1182.52,510
1181.56,481
1180.59,449
1179.63,423
1178.66,402
1177.70,372
1176.74,328
1175.77,280
1174.81,260
1173.84,256
1172.88,264
1171.91,287
1170.95,320
1169.99,356
1169.02,390
1168.06,415
1167.09,440
1166.13,460
1165.16,475
1164.20,475
1163.24,455
1162.27,425
1161.31,400
1160.34,389
1159.38,387
1158.42,391
1157.45,403
1156.49,430
1155.52,471
1154.56,504
1153.59,517
1152.63,526
1151.67,547
1150.70,576
1149.74,637
1148.77,737
1147.81,891
1146.84,1097
1145.88,1341
1144.92,1608
1143.95,1873
1142.99,2082
1142.02,2176
1141.06,2163
1140.09,1977
1139.13,1663
1138.17,1347
1137.20,1044
1136.24,793
1135.27,661
1134.31,605
1133.35,584
1132.38,602
1131.42,629
1130.45,669
1129.49,712
1128.52,737
1127.56,732
1126.60,692
1125.63,617
1124.67,530
1123.70,452
1122.74,374
1121.77,317
1120.81,280
1119.85,254
1118.88,234
1117.92,228
1116.95,228
1115.99,233
1115.02,239
1114.06,250
1113.10,269
1112.13,300
1111.17,336
1110.20,372
1109.24,409
1108.28,450
1107.31,475
1106.35,482
1105.38,462
1104.42,411
1103.45,343
1102.49,283
1101.53,236
1100.56,203
1099.60,187
1098.63,194
1097.67,210
1096.70,217
1095.74,209
1094.78,186
1093.81,154
1092.85,127
1091.88,125
1090.92,144
1089.95,167
1088.99,181
1088.03,185
1087.06,187
1086.10,192
1085.13,197
1084.17,191
1083.21,179
1082.24,170
1081.28,167
1080.31,163
1079.35,150
1078.38,133
1077.42,124
1076.46,134
1075.49,152
1074.53,159
1073.56,154
1072.60,144
1071.63,134
1070.67,122
1069.71,113
1068.74,115
1067.78,136
1066.81,167
1065.85,200
1064.88,225
1063.92,237
1062.96,240
1061.99,238
1061.03,233
1060.06,232
1059.10,233
1058.13,222
1057.17,201
1056.21,186
1055.24,181
1054.28,167
1053.31,147
1052.35,144
1051.39,150
1050.42,156
1049.46,162
1048.49,167
1047.53,175
1046.56,195
1045.60,232
1044.64,284
1043.67,343
1042.71,406
1041.74,472
1040.78,544
1039.81,622
1038.85,699
1037.89,762
1036.92,770
1035.96,744
1034.99,676
1034.03,561
1033.06,428
1032.10,322
1031.14,244
1030.17,198
1029.21,176
1028.24,162
1027.28,143
1026.32,118
1025.35,95
1024.39,86
1023.42,89
1022.46,93
1021.49,101
1020.53,104
1019.57,97
1018.60,85
1017.64,77
1016.67,76
1015.71,82
1014.74,97
1013.78,112
1012.82,121
1011.85,128
1010.89,139
1009.92,163
1008.96,202
1007.99,253
1007.03,299
1006.07,305
1005.10,280
1004.14,238
1003.17,189
1002.21,143
1001.25,127
1000.28,121
999.32,106
998.35,92
997.39,81
996.42,77
995.46,80
994.50,82
993.53,71
992.57,47
991.60,30
990.64,21
989.67,16
988.71,12
987.75,8
986.78,5
985.82,3
984.85,8
983.89,18
982.92,21
981.96,18
981.00,14
980.03,13
979.07,16
978.10,27
977.14,47
976.18,72
975.21,100
974.25,129
973.28,155
972.32,174
971.35,192
970.39,194
969.43,186
968.46,173
967.50,142
966.53,93
965.57,43
964.60,8
963.64,1
962.68,16
961.71,47
960.75,80
959.78,112
958.82,151
957.85,212
956.89,306
955.93,446
954.96,609
954.00,771
953.03,925
952.07,1012
951.11,961
950.14,820
949.18,649
948.21,415
947.25,245
946.28,144
945.32,87
944.36,53
943.39,35
942.43,27
941.46,29
940.50,46
939.53,64
938.57,78
937.61,86
936.64,89
935.68,80
934.71,57
933.75,39
932.78,35
931.82,38
930.86,43
929.89,47
928.93,48
927.96,41
927.00,31
926.04,22
925.07,16
924.11,14
923.14,15
922.18,19
921.21,23
920.25,26
919.29,25
918.32,15
917.36,0
916.39,-12
915.43,-12
914.46,3
913.50,19
912.54,25
911.57,20
910.61,7
909.64,-8
908.68,-23
907.71,-34
906.75,-43
905.79,-54
904.82,-66
903.86,-67
902.89,-49
901.93,-15
900.96,17
900.00,31
899.04,37
898.07,36
897.11,18
896.14,-9
895.18,-30
894.22,-33
893.25,-25
892.29,-12
891.32,4
890.36,21
889.39,37
888.43,46
887.47,48
886.50,49
885.54,54
884.57,56
883.61,57
882.64,59
881.68,60
880.72,49
879.75,26
878.79,10
877.82,-1
876.86,-5
875.89,7
874.93,40
873.97,84
873.00,109
872.04,114
871.07,127
870.11,148
869.15,163
868.18,162
867.22,146
866.25,122
865.29,98
864.32,90
863.36,105
862.40,128
861.43,141
860.47,133
859.50,107
858.54,81
857.57,69
856.61,77
855.65,106
854.68,153
853.72,210
852.75,260
851.79,302
850.82,349
849.86,408
848.90,472
847.93,534
846.97,587
846.00,610
845.04,604
844.08,594
843.11,590
842.15,594
841.18,603
840.22,612
839.25,611
838.29,596
837.33,580
836.36,563
835.40,552
834.43,570
833.47,659
832.50,776
831.54,831
830.58,872
829.61,872
828.65,808
827.68,687
826.72,536
825.75,345
824.79,206
823.83,115
822.86,63
821.90,35
820.93,23
819.97,9
819.01,-12
818.04,-24
817.08,-20
816.11,0
815.15,34
814.18,78
813.22,130
812.26,200
811.29,275
810.33,340
809.36,399
808.40,448
807.43,461
806.47,442
805.51,391
804.54,304
803.58,206
802.61,122
801.65,67
800.68,33
799.72,18
798.76,7
797.79,-10
796.83,-33
795.86,-61
794.90,-83
793.94,-82
792.97,-68
792.01,-59
791.04,-52
790.08,-50
789.11,-51
788.15,-57
787.19,-56
786.22,-42
785.26,-19
784.29,7
783.33,32
782.36,60
781.40,93
780.44,110
779.47,99
778.51,72
777.54,45
776.58,30
775.61,28
774.65,25
773.69,3
772.72,-34
771.76,-64
770.79,-69
769.83,-50
768.87,-29
767.90,-35
766.94,-44
765.97,-41
765.01,-29
764.04,-18
763.08,-19
762.12,-35
761.15,-61
760.19,-79
759.22,-76
758.26,-61
757.29,-51
756.33,-63
755.37,-87
754.40,-83
753.44,-53
752.47,8
751.51,102
750.54,227
749.58,382
748.62,579
747.65,789
746.69,974
745.72,1099
744.76,1103
743.79,889
742.83,535
741.87,297
740.90,109
739.94,-9
738.97,-54
738.01,-57
737.05,-67
736.08,-70
735.12,-68
734.15,-56
733.19,-39
732.22,-25
731.26,-24
730.30,-35
729.33,-41
728.37,-32
727.40,-7
726.44,20
725.47,31
724.51,23
723.55,14
722.58,16
721.62,32
720.65,57
719.69,81
718.72,100
717.76,98
716.80,85
715.83,72
714.87,64
713.90,53
712.94,32
711.98,9
711.01,-0
710.05,10
709.08,41
708.12,84
707.15,127
706.19,160
705.23,183
704.26,202
703.30,213
702.33,218
701.37,222
700.40,229
699.44,230
698.48,233
697.51,243
696.55,263
695.58,290
694.62,320
693.65,345
692.69,351
691.73,347
690.76,347
689.80,353
688.83,350
687.87,396
686.91,654
685.94,884
684.98,941
684.01,1046
683.05,1585
682.08,2411
681.12,2808
680.16,3077
679.19,3243
678.23,3191
677.26,2808
676.30,2179
675.33,1483
674.37,812
673.41,402
672.44,244
671.48,204
670.51,148
669.55,135
668.58,97
667.62,62
666.66,42
665.69,40
664.73,54
663.76,67
662.80,64
661.84,54
660.87,46
659.91,42
658.94,36
657.98,18
657.01,-3
656.05,-10
655.09,-3
654.12,9
653.16,15
652.19,16
651.23,15
650.26,0
649.30,-18
648.34,-30
647.37,-31
646.41,-27
645.44,-19
644.48,6
643.51,39
642.55,67
641.59,75
640.62,59
639.66,30
638.69,10
637.73,8
636.77,19
635.80,32
634.84,41
633.87,51
632.91,53
631.94,52
630.98,50
630.02,43
629.05,18
628.09,-9
627.12,-13
626.16,-1
625.19,10
624.23,11
623.27,-2
622.30,-19
621.34,-26
620.37,-25
619.41,-24
618.44,-28
617.48,-32
616.52,-19
615.55,1
614.59,20
613.62,32
612.66,34
611.70,26
610.73,20
609.77,21
608.80,27
607.84,37
606.87,51
605.91,66
604.95,90
603.98,121
603.02,156
602.05,194
601.09,240
600.12,303
599.16,408
598.20,538
597.23,685
596.27,848
595.30,1014
594.34,1149
593.37,1278
592.41,1340
591.45,1333
590.48,1279
589.52,1200
588.55,1093
587.59,973
586.62,864
585.66,758
584.70,645
583.73,523
582.77,413
581.80,347
580.84,288
579.88,231
578.91,182
577.95,145
576.98,114
576.02,106
575.05,122
574.09,144
573.13,155
572.16,141
571.20,110
570.23,79
569.27,55
568.30,40
567.34,31
566.38,27
565.41,28
564.45,20
563.48,6
562.52,-2
561.55,-3
560.59,-14
559.63,-61
558.66,-106
557.70,-118
556.73,-95
555.77,-50
554.81,-5
553.84,21
552.88,25
551.91,18
550.95,12
549.98,20
549.02,48
548.06,67
547.09,52
546.13,16
545.16,-18
544.20,-27
543.23,-12
542.27,0
541.31,5
540.34,-0
539.38,-20
538.41,-54
537.45,-79
536.48,-82
535.52,-72
534.56,-54
533.59,-31
532.63,-3
531.66,20
530.70,33
529.74,39
528.77,42
527.81,47
526.84,55
525.88,57
524.91,55
523.95,48
522.99,34
522.02,12
521.06,-10
520.09,-4
519.13,6
518.16,8
517.20,-2
516.24,-23
515.27,-54
514.31,-73
513.34,-69
512.38,-50
511.41,-33
510.45,-35
509.49,-56
508.52,-68
507.56,-68
506.59,-53
505.63,-27
504.67,-2
503.70,3
502.74,1
501.77,-0
500.81,-0
499.84,-2
498.88,-11
497.92,-21
496.95,-26
495.99,-19
495.02,2
494.06,37
493.09,71
492.13,92
491.17,103
490.20,107
489.24,107
488.27,113
487.31,136
486.34,158
485.38,176
484.42,189
483.45,195
482.49,207
481.52,238
480.56,245
479.60,216
478.63,158
477.67,100
476.70,48
475.74,2
474.77,-25
473.81,-32
472.85,-29
471.88,-31
470.92,-25
469.95,-12
468.99,3
468.02,12
467.06,12
466.10,7
465.13,20
464.17,39
463.20,65
462.24,90
461.27,110
460.31,104
459.35,82
458.38,62
457.42,61
456.45,85
455.49,117
454.53,131
453.56,123
452.60,100
451.63,74
450.67,59
449.70,48
448.74,46
447.78,51
446.81,59
445.85,57
444.88,49
443.92,45
442.95,38
441.99,24
441.03,3
440.06,-14
439.10,-24
438.13,-38
437.17,-60
436.20,-84
435.24,-97
434.28,-89
433.31,-89
432.35,-98
431.38,-106
430.42,-103
429.45,-85
428.49,-61
427.53,-51
426.56,-61
425.60,-89
424.63,-112
423.67,-104
422.71,-92
421.74,-83
420.78,-75
419.81,-62
418.85,-42
417.88,-34
416.92,-43
415.96,-63
414.99,-86
414.03,-108
413.06,-128
412.10,-142
411.13,-147
410.17,-143
409.21,-125
408.24,-104
407.28,-94
406.31,-90
405.35,-84
404.38,-65
403.42,-30
402.46,9
401.49,41
400.53,63
399.56,77
398.60,89
397.64,81
396.67,54
395.71,31
394.74,21
393.78,23
392.81,15
391.85,9
390.89,-17
389.92,-65
388.96,-121
387.99,-155
387.03,-148
386.06,-121
385.10,-93
384.14,-75
383.17,-76
382.21,-92
381.24,-110
380.28,-129
379.31,-147
378.35,-162
377.39,-172
376.42,-176
375.46,-169
374.49,-156
373.53,-149
372.57,-160
371.60,-165
370.64,-162
369.67,-156
368.71,-152
367.74,-148
366.78,-145
365.82,-139
364.85,-123
363.89,-93
362.92,-55
361.96,-31
360.99,-36
360.03,-58
359.07,-79
358.10,-81
357.14,-51
356.17,-0
355.21,58
354.24,107
353.28,131
352.32,108
351.35,42
350.39,-20
349.42,-58
348.46,-63
347.50,-37
346.53,-4
345.57,0
344.60,7
343.64,15
342.67,29
341.71,31
340.75,12
339.78,-10
338.82,-23
337.85,-22
336.89,-14
335.92,-21
334.96,-38
334.00,-51
333.03,-55
332.07,-52
331.10,-66
330.14,-81
329.17,-85
328.21,-70
327.25,-37
326.28,-1
325.32,25
324.35,37
323.39,34
322.43,21
321.46,20
320.50,30
319.53,33
318.57,20
317.60,-9
316.64,-31
315.68,-32
314.71,-20
313.75,-2
312.78,12
311.82,38
310.85,51
309.89,59
308.93,48
307.96,6
307.00,-68
306.03,-133
305.07,-156
304.10,-137
303.14,-86
302.18,-35
301.21,-13
300.25,-5
299.28,-11
298.32,-30
297.36,-62
296.39,-67
295.43,-50
294.46,-31
293.50,-11
292.53,16
291.57,44
290.61,42
289.64,24
288.68,6
287.71,8
286.75,36
285.78,66
284.82,87
283.86,96
282.89,96
281.93,89
280.96,79
280.00,71
279.03,62
278.07,47
277.11,23
276.14,7
275.18,2
274.21,11
273.25,0
272.28,19
271.32,30
270.36,43
269.39,60
268.43,81
267.46,96
266.50,105
265.54,113
264.57,123
263.61,140
262.64,166
261.68,212
260.71,280
259.75,360
258.79,440
257.82,507
256.86,528
255.89,528
254.93,502
253.96,446
253.00,371
252.04,322
251.07,272
250.11,225
249.14,188
248.18,171
247.21,154
246.25,130
245.29,100
244.32,69
243.36,41
242.39,21
241.43,8
240.47,6
239.50,21
238.54,67
237.57,128
236.61,188
235.64,254
234.68,330
233.72,403
232.75,465
231.79,461
230.82,389
229.86,266
228.89,144
227.93,59
226.97,1
226.00,-32
225.04,-43
224.07,-39
223.11,-23
222.14,-4
221.18,0
220.22,-16
219.25,-44
218.29,-40
217.32,-16
216.36,9
215.40,20
214.43,1
213.47,-43
212.50,-76
211.54,-79
210.57,-43
209.61,24
208.65,73
207.68,80
206.72,44
205.75,-21
204.79,-73
203.82,-75
202.86,-44
201.90,-2
200.93,31
199.97,33
199.00,21
198.04,17
197.07,27
196.11,76
195.15,93
194.18,98
193.22,98
192.25,97
191.29,99
190.33,98
189.36,87
188.40,69
187.43,51
186.47,42
185.50,54
184.54,72
183.58,84
182.61,84
181.65,70
180.68,53
179.72,63
178.75,105
177.79,176
176.83,264
175.86,361
174.90,428
173.93,467
172.97,476
172.00,438
171.04,335
170.08,219
169.11,106
168.15,7
167.18,-71
166.22,-108
165.26,-112
164.29,-94
163.33,-66
162.36,-38
161.40,-12
160.43,15
159.47,38
158.51,48
157.54,44
156.58,50
155.61,57
154.65,57
153.68,32
152.72,-4
151.76,-33
150.79,-53
149.83,-60
148.86,-50
147.90,-20
146.93,7
145.97,20
145.01,18
144.04,7
143.08,22
142.11,53
141.15,88
140.19,120
139.22,152
138.26,172
137.29,178
136.33,179
135.36,184
134.40,158
133.44,94
132.47,30
131.51,-13
130.54,-20
129.58,15
128.61,66
127.65,118
126.69,148
125.72,143
124.76,109
123.79,77
122.83,55
121.86,51
120.90,75
119.94,117
118.97,158
118.01,186
117.04,192
116.08,167
115.11,131
114.15,101
113.19,84
112.22,87
111.26,109
110.29,138
109.33,168
108.37,197
107.40,225
106.44,243
105.47,246
104.51,237
103.54,221
102.58,206
101.62,193
100.65,183
99.69,173
98.72,161
97.76,137
96.79,101
95.83,66
94.87,-31
93.90,-55
92.94,-72
91.97,-78
91.01,-78
90.04,-75
89.08,-71
88.12,-76
87.15,-99
86.19,-141
85.22,-193
84.26,-234
83.30,-240
82.33,-231
81.37,-227
80.40,-253
79.44,-301
78.47,-331
77.51,-346
76.55,-349
