Created As Omnic File,BIOL 001
Raman Shift / cm-1,INT
3418.58,194
3417.61,210
3416.65,208
3415.68,196
3414.72,190
3413.76,184
3412.79,166
3411.83,133
3410.86,99
3409.90,81
3408.94,99
3407.97,139
3407.01,165
3406.04,143
3405.08,115
3404.11,129
3403.15,166
3402.19,172
3401.22,129
3400.26,56
3399.29,12
3398.33,4
3397.36,11
3396.40,16
3395.44,23
3394.47,34
3393.51,45
3392.54,54
3391.58,68
3390.61,86
3389.65,104
3388.69,80
3387.72,9
3386.76,-38
3385.79,-28
3384.83,-8
3383.87,-12
3382.90,-9
3381.94,14
3380.97,12
3380.01,-38
3379.04,-107
3378.08,-148
3377.12,-108
3376.15,-23
3375.19,-0
3374.22,-3
3373.26,6
3372.29,-4
3371.33,-35
3370.37,-67
3369.40,-88
3368.44,-90
3367.47,-82
3366.51,-82
3365.54,-87
3364.58,-80
3363.62,-73
3362.65,-63
3361.69,-58
3360.72,-77
3359.76,-98
3358.80,-88
3357.83,-56
3356.87,-18
3355.90,-7
3354.94,-55
3353.97,-95
3353.01,-117
3352.05,-123
3351.08,-92
3350.12,-42
3349.15,-5
3348.19,0
3347.22,-14
3346.26,-18
3345.30,-7
3344.33,11
3343.37,-6
3342.40,-47
3341.44,-69
3340.47,-72
3339.51,-43
3338.55,-11
3337.58,-16
3336.62,-44
3335.65,-65
3334.69,-70
3333.73,-53
3332.76,-26
3331.80,-20
3330.83,-32
3329.87,-70
3328.90,-124
3327.94,-142
3326.98,-110
3326.01,-74
3325.05,-38
3324.08,-27
3323.12,-51
3322.15,-72
3321.19,-54
3320.23,-18
3319.26,-7
3318.30,-10
3317.33,-8
3316.37,-12
3315.40,-25
3314.44,-31
3313.48,-42
3312.51,-55
3311.55,-49
3310.58,-45
3309.62,-27
3308.66,1
3307.69,4
3306.73,-5
3305.76,-14
3304.80,-29
3303.83,-45
3302.87,-50
3301.91,-50
3300.94,-31
3299.98,3
3299.01,9
3298.05,8
3297.08,15
3296.12,2
3295.16,-12
3294.19,15
3293.23,49
3292.26,80
3291.30,91
3290.33,32
3289.37,-43
3288.41,-52
3287.44,-37
3286.48,-53
3285.51,-76
3284.55,-58
3283.59,-14
3282.62,8
3281.66,13
3280.69,26
3279.73,37
3278.76,25
3277.80,-5
3276.84,-43
3275.87,-76
3274.91,-85
3273.94,-65
3272.98,-45
3272.01,-48
3271.05,-57
3270.09,-43
3269.12,-31
3268.16,-48
3267.19,-77
3266.23,-80
3265.26,-59
3264.30,-43
3263.34,-40
3262.37,-35
3261.41,-26
3260.44,-13
3259.48,3
3258.51,12
3257.55,-2
3256.59,-43
3255.62,-49
3254.66,-14
3253.69,-17
3252.73,-46
3251.77,-64
3250.80,-76
3249.84,-90
3248.87,-91
3247.91,-59
3246.94,-9
3245.98,14
3245.02,15
3244.05,19
3243.09,14
3242.12,-15
3241.16,-46
3240.19,-49
3239.23,-32
3238.27,-11
3237.30,12
3236.34,18
3235.37,10
3234.41,13
3233.44,1
3232.48,-8
3231.52,-5
3230.55,-2
3229.59,-2
3228.62,-12
3227.66,-29
3226.70,-47
3225.73,-80
3224.77,-71
3223.80,4
3222.84,36
3221.87,-3
3220.91,-29
3219.95,-21
3218.98,-6
3218.02,-3
3217.05,-2
3216.09,15
3215.12,35
3214.16,44
3213.20,40
3212.23,23
3211.27,17
3210.30,9
3209.34,-8
3208.37,-16
3207.41,-19
3206.45,-19
3205.48,-10
3204.52,-10
3203.55,-24
3202.59,-10
3201.63,38
3200.66,65
3199.70,51
3198.73,13
3197.77,-27
3196.80,-27
3195.84,20
3194.88,55
3193.91,49
3192.95,38
3191.98,22
3191.02,2
3190.05,-7
3189.09,-10
3188.13,1
3187.16,34
3186.20,73
3185.23,95
3184.27,85
3183.30,53
3182.34,28
3181.38,33
3180.41,51
3179.45,53
3178.48,47
3177.52,42
3176.56,68
3175.59,100
3174.63,67
3173.66,-3
3172.70,-43
3171.73,-16
3170.77,64
3169.81,132
3168.84,130
3167.88,79
3166.91,39
3165.95,14
3164.98,-27
3164.02,-60
3163.06,-40
3162.09,14
3161.13,52
3160.16,64
3159.20,45
3158.23,2
3157.27,7
3156.31,33
3155.34,39
3154.38,87
3153.41,127
3152.45,80
3151.49,18
3150.52,9
3149.56,34
3148.59,39
3147.63,29
3146.66,50
3145.70,102
3144.74,113
3143.77,96
3142.81,98
3141.84,110
3140.88,115
3139.91,99
3138.95,57
3137.99,33
3137.02,61
3136.06,79
3135.09,59
3134.13,39
3133.16,40
3132.20,63
3131.24,79
3130.27,64
3129.31,36
3128.34,26
3127.38,22
3126.42,3
3125.45,0
3124.49,45
3123.52,95
3122.56,114
3121.59,96
3120.63,64
3119.67,60
3118.70,61
3117.74,50
3116.77,52
3115.81,56
3114.84,27
3113.88,-1
3112.92,20
3111.95,62
3110.99,94
3110.02,103
3109.06,80
3108.09,56
3107.13,43
3106.17,6
3105.20,-31
3104.24,-37
3103.27,-24
3102.31,16
3101.34,61
3100.38,75
3099.42,75
3098.45,61
3097.49,43
3096.52,39
3095.56,40
3094.60,28
3093.63,0
3092.67,-12
3091.70,-1
3090.74,-5
3089.77,-11
3088.81,25
3087.85,51
3086.88,47
3085.92,31
3084.95,22
3083.99,35
3083.02,52
3082.06,53
3081.10,45
3080.13,36
3079.17,28
3078.20,12
3077.24,-3
3076.27,13
3075.31,51
3074.35,81
3073.38,76
3072.42,39
3071.45,20
3070.49,34
3069.53,58
3068.56,79
3067.60,95
3066.63,106
3065.67,118
3064.70,119
3063.74,97
3062.78,79
3061.81,62
3060.85,34
3059.88,20
3058.92,37
3057.95,74
3056.99,119
3056.03,123
3055.06,48
3054.10,-6
3053.13,30
3052.17,74
3051.20,59
3050.24,20
3049.28,11
3048.31,3
3047.35,-40
3046.38,-45
3045.42,0
3044.46,3
3043.49,-43
3042.53,-65
3041.56,-23
3040.60,21
3039.63,24
3038.67,18
3037.71,25
3036.74,44
3035.78,61
3034.81,37
3033.85,-15
3032.88,-22
3031.92,36
3030.96,70
3029.99,30
3029.03,12
3028.06,29
3027.10,54
3026.13,84
3025.17,98
3024.21,88
3023.24,77
3022.28,75
3021.31,79
3020.35,51
3019.39,19
3018.42,53
3017.46,131
3016.49,199
3015.53,236
3014.56,238
3013.60,230
3012.64,233
3011.67,238
3010.71,233
3009.74,221
3008.78,215
3007.81,240
3006.85,281
3005.89,323
3004.92,364
3003.96,393
3002.99,395
3002.03,388
3001.06,384
3000.10,382
2999.14,408
2998.17,461
2997.21,475
2996.24,452
2995.28,447
2994.32,464
2993.35,513
2992.39,549
2991.42,582
2990.46,651
2989.49,712
2988.53,735
2987.57,752
2986.60,743
2985.64,718
2984.67,722
2983.71,718
2982.74,719
2981.78,736
2980.82,761
2979.85,808
2978.89,854
2977.92,858
2976.96,841
2975.99,868
2975.03,918
2974.07,913
2973.10,884
2972.14,873
2971.17,859
2970.21,856
2969.25,882
2968.28,916
2967.32,959
2966.35,1001
2965.39,1005
2964.42,974
2963.46,945
2962.50,931
2961.53,941
2960.57,951
2959.60,949
2958.64,945
2957.67,949
2956.71,965
2955.75,989
2954.78,993
2953.82,960
2952.85,928
2951.89,939
2950.92,988
2949.96,1041
2949.00,1075
2948.03,1086
2947.07,1086
2946.10,1082
2945.14,1064
2944.17,1026
2943.21,1003
2942.25,1020
2941.28,1053
2940.32,1072
2939.35,1078
2938.39,1059
2937.43,1015
2936.46,993
2935.50,979
2934.53,958
2933.57,949
2932.60,942
2931.64,914
2930.68,859
2929.71,801
2928.75,769
2927.78,769
2926.82,768
2925.85,724
2924.89,668
2923.93,626
2922.96,594
2922.00,587
2921.03,598
2920.07,599
2919.10,586
2918.14,585
2917.18,614
2916.21,622
2915.25,548
2914.28,440
2913.32,396
2912.36,402
2911.39,411
2910.43,406
2909.46,401
2908.50,415
2907.53,452
2906.57,475
2905.61,460
2904.64,424
2903.68,400
2902.71,432
2901.75,490
2900.78,508
2899.82,478
2898.86,453
2897.89,478
2896.93,522
2895.96,524
2895.00,486
2894.03,465
2893.07,466
2892.11,456
2891.14,472
2890.18,512
2889.21,527
2888.25,515
2887.29,520
2886.32,575
2885.36,661
2884.39,704
2883.43,683
2882.46,677
2881.50,710
2880.54,728
2879.57,783
2878.61,863
2877.64,853
2876.68,778
2875.71,745
2874.75,773
2873.79,824
2872.82,847
2871.86,830
2870.89,780
2869.93,724
2868.96,706
2868.00,733
2867.04,784
2866.07,819
2865.11,803
2864.14,787
2863.18,817
2862.22,832
2861.25,793
2860.29,751
2859.32,758
2858.36,793
2857.39,810
2856.43,797
2855.47,789
2854.50,784
2853.54,740
2852.57,678
2851.61,614
2850.64,543
2849.68,492
2848.72,460
2847.75,415
2846.79,368
2845.82,348
2844.86,336
2843.89,299
2842.93,270
2841.97,274
2841.00,272
2840.04,252
2839.07,224
2838.11,174
2837.15,109
2836.18,61
2835.22,34
2834.25,9
2833.29,-19
2832.32,-32
2831.36,-17
2830.40,-1
2829.43,-5
2828.47,-20
2827.50,-31
2826.54,-22
2825.57,-37
2824.61,-98
2823.65,-127
2822.68,-68
2821.72,31
2820.75,90
2819.79,107
2818.82,92
2817.86,50
2816.90,17
2815.93,-5
2814.97,-6
2814.00,18
2813.04,11
2812.08,-27
2811.11,-32
2810.15,-3
2809.18,29
2808.22,67
2807.25,87
2806.29,64
2805.33,37
2804.36,26
2803.40,26
2802.43,26
2801.47,21
2800.50,24
2799.54,42
2798.58,53
2797.61,33
2796.65,10
2795.68,23
2794.72,39
2793.75,28
2792.79,22
2791.83,27
2790.86,19
2789.90,4
2788.93,-1
2787.97,8
2787.00,43
2786.04,97
2785.08,150
2784.11,187
2783.15,172
2782.18,85
2781.22,9
2780.26,-3
2779.29,18
2778.33,50
2777.36,74
2776.40,71
2775.43,29
2774.47,-13
2773.51,10
2772.54,76
2771.58,108
2770.61,76
2769.65,6
2768.68,-38
2767.72,-36
2766.76,-25
2765.79,-35
2764.83,-63
2763.86,-71
2762.90,-37
2761.93,0
2760.97,3
2760.01,4
2759.04,0
2758.08,0
2757.11,15
2756.15,5
2755.19,-27
2754.22,-39
2753.26,-17
2752.29,21
2751.33,49
2750.36,73
2749.40,100
2748.44,102
2747.47,68
2746.51,9
2745.54,-45
2744.58,-63
2743.61,-29
2742.65,31
2741.69,72
2740.72,72
2739.76,43
2738.79,0
2737.83,-36
2736.86,-60
2735.90,-83
2734.94,-88
2733.97,-56
2733.01,-17
2732.04,-19
2731.08,-39
2730.12,-34
2729.15,-5
2728.19,14
2727.22,26
2726.26,49
2725.29,61
2724.33,40
2723.37,9
2722.40,-2
2721.44,-3
2720.47,-38
2719.51,-72
2718.54,-49
2717.58,12
2716.62,73
2715.65,90
2714.69,61
2713.72,11
2712.76,-37
2711.79,-62
2710.83,-60
2709.87,-27
2708.90,-2
2707.94,-37
2706.97,-71
2706.01,-85
2705.05,-112
2704.08,-110
2703.12,-66
2702.15,-30
2701.19,-17
2700.22,-12
2699.26,-40
2698.30,-95
2697.33,-110
2696.37,-74
2695.40,-58
2694.44,-84
2693.47,-116
2692.51,-123
2691.55,-99
2690.58,-51
2689.62,2
2688.65,40
2687.69,42
2686.72,24
2685.76,30
2684.80,36
2683.83,27
2682.87,24
2681.90,-6
2680.94,-53
2679.98,-72
2679.01,-57
2678.05,-22
2677.08,18
2676.12,49
2675.15,42
2674.19,-1
2673.23,-35
2672.26,-58
2671.30,-84
2670.33,-94
2669.37,-84
2668.40,-83
2667.44,-102
2666.48,-108
2665.51,-68
2664.55,-12
2663.58,-2
2662.62,-33
2661.65,-49
2660.69,-35
2659.73,-43
2658.76,-60
2657.80,-23
2656.83,26
2655.87,55
2654.91,56
2653.94,27
2652.98,2
2652.01,1
2651.05,17
2650.08,39
2649.12,39
2648.16,3
2647.19,-49
2646.23,-65
2645.26,-33
2644.30,-5
2643.33,16
2642.37,67
2641.41,132
2640.44,163
2639.48,140
2638.51,74
2637.55,7
2636.58,-26
2635.62,-40
2634.66,-61
2633.69,-97
2632.73,-138
2631.76,-166
2630.80,-144
2629.83,-47
2628.87,85
2627.91,178
2626.94,186
2625.98,120
2625.01,31
2624.05,-24
2623.09,-25
2622.12,-21
2621.16,-47
2620.19,-68
2619.23,-74
2618.26,-71
2617.30,-64
2616.34,-40
2615.37,-19
2614.41,-43
2613.44,-102
2612.48,-124
2611.51,-98
2610.55,-68
2609.59,-36
2608.62,-7
2607.66,-12
2606.69,-48
2605.73,-91
2604.76,-102
2603.80,-69
2602.84,-32
2601.87,-20
2600.91,-26
2599.94,-46
2598.98,-60
2598.02,-56
2597.05,-61
2596.09,-82
2595.12,-78
2594.16,-50
2593.19,-24
2592.23,3
2591.27,20
2590.30,8
2589.34,-16
2588.37,-16
2587.41,0
2586.44,7
2585.48,5
2584.52,-23
2583.55,-91
2582.59,-137
2581.62,-125
2580.66,-67
2579.69,-3
2578.73,31
2577.77,10
2576.80,-40
2575.84,-66
2574.87,-60
2573.91,-35
2572.95,16
2571.98,45
2571.02,-5
2570.05,-71
2569.09,-64
2568.12,16
2567.16,100
2566.20,119
2565.23,72
2564.27,4
2563.30,-39
2562.34,-19
2561.37,42
2560.41,71
2559.45,51
2558.48,11
2557.52,-23
2556.55,-21
2555.59,17
2554.62,53
2553.66,51
2552.70,12
2551.73,-33
2550.77,-60
2549.80,-79
2548.84,-111
2547.88,-139
2546.91,-110
2545.95,-52
2544.98,-35
2544.02,-14
2543.05,37
2542.09,74
2541.13,65
2540.16,12
2539.20,-40
2538.23,-40
2537.27,0
2536.30,23
2535.34,16
2534.38,15
2533.41,13
2532.45,-19
2531.48,-52
2530.52,-70
2529.55,-80
2528.59,-65
2527.63,-29
2526.66,-7
2525.70,-2
2524.73,11
2523.77,9
2522.81,-43
2521.84,-95
2520.88,-102
2519.91,-77
2518.95,-58
2517.98,-97
2517.02,-135
2516.06,-124
2515.09,-89
2514.13,-36
2513.16,34
2512.20,67
2511.23,25
2510.27,-47
2509.31,-87
2508.34,-68
2507.38,-12
2506.41,20
2505.45,5
2504.48,-27
2503.52,-42
2502.56,-26
2501.59,-5
2500.63,-4
2499.66,-11
2498.70,-0
2497.74,40
2496.77,77
2495.81,83
2494.84,67
2493.88,16
2492.91,-9
2491.95,9
2490.99,22
2490.02,37
2489.06,62
2488.09,58
2487.13,17
2486.16,-29
2485.20,-57
2484.24,-43
2483.27,16
2482.31,70
2481.34,99
2480.38,112
2479.41,85
2478.45,23
2477.49,-22
2476.52,-37
2475.56,-46
2474.59,-62
2473.63,-59
2472.66,-23
2471.70,1
2470.74,-22
2469.77,-53
2468.81,-57
2467.84,-39
2466.88,18
2465.92,85
2464.95,89
2463.99,56
2463.02,33
2462.06,21
2461.09,-1
2460.13,-29
2459.17,-52
2458.20,-65
2457.24,-74
2456.27,-82
2455.31,-70
2454.34,-23
2453.38,50
2452.42,117
2451.45,127
2450.49,74
2449.52,19
2448.56,11
2447.59,33
2446.63,37
2445.67,25
2444.70,34
2443.74,97
2442.77,198
2441.81,269
2440.85,284
2439.88,276
2438.92,241
2437.95,192
2436.99,162
2436.02,152
2435.06,149
2434.10,164
2433.13,198
2432.17,234
2431.20,273
2430.24,274
2429.27,239
2428.31,203
2427.35,153
2426.38,103
2425.42,62
2424.45,27
2423.49,17
2422.52,55
2421.56,132
2420.60,212
2419.63,258
2418.67,245
2417.70,192
2416.74,163
2415.78,153
2414.81,103
2413.85,26
2412.88,-52
2411.92,-95
2410.95,-46
2409.99,68
2409.03,131
2408.06,86
2407.10,-10
2406.13,-92
2405.17,-112
2404.20,-67
2403.24,-2
2402.28,49
2401.31,61
2400.35,32
2399.38,10
2398.42,22
2397.45,54
2396.49,71
2395.53,55
2394.56,26
2393.60,21
2392.63,20
2391.67,-30
2390.71,-81
2389.74,-59
2388.78,-0
2387.81,61
2386.85,93
2385.88,85
2384.92,57
2383.96,21
2382.99,-25
2382.03,-63
2381.06,-44
2380.10,39
2379.13,140
2378.17,226
2377.21,277
2376.24,274
2375.28,222
2374.31,128
2373.35,14
2372.38,-60
2371.42,-57
2370.46,-13
2369.49,10
2368.53,3
2367.56,19
2366.60,70
2365.64,98
2364.67,76
2363.71,19
2362.74,-32
2361.78,-31
2360.81,15
2359.85,46
2358.89,13
2357.92,-62
2356.96,-108
2355.99,-98
2355.03,-54
2354.06,10
2353.10,52
2352.14,33
2351.17,-14
2350.21,-41
2349.24,-4
2348.28,74
2347.31,151
2346.35,185
2345.39,141
2344.42,55
2343.46,2
2342.49,1
2341.53,8
2340.57,12
2339.60,42
2338.64,101
2337.67,154
2336.71,131
2335.74,54
2334.78,9
2333.82,-5
2332.85,-17
2331.89,-12
2330.92,10
2329.96,48
2328.99,117
2328.03,186
2327.07,187
2326.10,144
2325.14,138
2324.17,169
2323.21,175
2322.24,121
2321.28,44
2320.32,8
2319.35,18
2318.39,52
2317.42,84
2316.46,92
2315.49,79
2314.53,75
2313.57,93
2312.60,101
2311.64,77
2310.67,68
2309.71,96
2308.75,99
2307.78,67
2306.82,39
2305.85,22
2304.89,6
2303.92,0
2302.96,12
2302.00,14
2301.03,-16
2300.07,-22
2299.10,28
2298.14,40
2297.17,3
2296.21,13
2295.25,27
2294.28,-4
2293.32,-25
2292.35,14
2291.39,67
2290.42,75
2289.46,36
2288.50,-29
2287.53,-68
2286.57,-40
2285.60,4
2284.64,31
2283.68,45
2282.71,39
2281.75,41
2280.78,60
2279.82,78
2278.85,81
2277.89,54
2276.93,18
2275.96,22
2275.00,65
2274.03,93
2273.07,97
2272.10,96
2271.14,92
2270.18,102
2269.21,127
2268.25,123
2267.28,67
2266.32,1
2265.35,-9
2264.39,43
2263.43,87
2262.46,93
2261.50,118
2260.53,197
2259.57,277
2258.61,260
2257.64,129
2256.68,-19
2255.71,-108
2254.75,-93
2253.78,12
2252.82,107
2251.86,140
2250.89,124
2249.93,83
2248.96,112
2248.00,215
2247.03,200
2246.07,57
2245.11,-18
2244.14,-7
2243.18,20
2242.21,37
2241.25,27
2240.28,14
2239.32,25
2238.36,50
2237.39,65
2236.43,51
2235.46,-4
2234.50,-69
2233.54,-74
2232.57,-32
2231.61,-2
2230.64,43
2229.68,86
2228.71,53
2227.75,-6
2226.79,-31
2225.82,-46
2224.86,-54
2223.89,-30
2222.93,11
2221.96,33
2221.00,37
2220.04,32
2219.07,-22
2218.11,-123
2217.14,-188
2216.18,-166
2215.21,-73
2214.25,43
2213.29,104
2212.32,66
2211.36,-13
2210.39,-51
2209.43,-41
2208.47,-27
2207.50,-35
2206.54,-61
2205.57,-75
2204.61,-41
2203.64,30
2202.68,84
2201.72,101
2200.75,92
2199.79,83
2198.82,92
2197.86,95
2196.89,66
2195.93,2
2194.97,-74
2194.00,-130
2193.04,-136
2192.07,-89
2191.11,-17
2190.14,45
2189.18,88
2188.22,123
2187.25,124
2186.29,86
2185.32,58
2184.36,57
2183.40,52
2182.43,16
2181.47,-42
2180.50,-94
2179.54,-111
2178.57,-81
2177.61,-27
2176.65,25
2175.68,46
2174.72,30
2173.75,2
2172.79,-23
2171.82,-41
2170.86,-45
2169.90,-39
2168.93,-33
2167.97,-27
2167.00,-30
2166.04,-45
2165.07,-57
2164.11,-46
2163.15,-20
2162.18,0
2161.22,1
2160.25,-18
2159.29,-43
2158.32,-39
2157.36,-6
2156.40,6
2155.43,-31
2154.47,-87
2153.50,-110
2152.54,-86
2151.58,-32
2150.61,18
2149.65,32
2148.68,12
2147.72,-0
2146.75,13
2145.79,36
2144.83,58
2143.86,56
2142.90,3
2141.93,-87
2140.97,-158
2140.00,-173
2139.04,-153
2138.08,-125
2137.11,-86
2136.15,-44
2135.18,-43
2134.22,-72
2133.25,-63
2132.29,-8
2131.33,45
2130.36,71
2129.40,57
2128.43,8
2127.47,-40
2126.51,-51
2125.54,-33
2124.58,-12
2123.61,2
2122.65,-3
2121.68,-6
2120.72,5
2119.76,11
2118.79,27
2117.83,35
2116.86,8
2115.90,-27
2114.93,-45
2113.97,-48
2113.01,-34
2112.04,2
2111.08,35
2110.11,52
2109.15,58
2108.18,41
2107.22,6
2106.26,-30
2105.29,-61
2104.33,-65
2103.36,-21
2102.40,43
2101.44,86
2100.47,86
2099.51,59
2098.54,29
2097.58,-17
2096.61,-96
2095.65,-179
2094.69,-225
2093.72,-238
2092.76,-183
2091.79,-64
2090.83,7
2089.86,-4
2088.90,-43
2087.94,-74
2086.97,-99
2086.01,-107
2085.04,-87
2084.08,-60
2083.11,-44
2082.15,-36
2081.19,-36
2080.22,-51
2079.26,-61
2078.29,-27
2077.33,38
2076.37,64
2075.40,19
2074.44,-36
2073.47,-38
2072.51,-19
2071.54,-48
2070.58,-122
2069.62,-172
2068.65,-162
2067.69,-125
2066.72,-100
2065.76,-68
2064.79,-10
2063.83,39
2062.87,46
2061.90,20
2060.94,-19
2059.97,-52
2059.01,-76
2058.04,-90
2057.08,-90
2056.12,-91
2055.15,-110
2054.19,-119
2053.22,-90
2052.26,-60
2051.30,-59
2050.33,-79
2049.37,-93
2048.40,-65
2047.44,-3
2046.47,43
2045.51,54
2044.55,55
2043.58,65
2042.62,85
2041.65,116
2040.69,154
2039.72,180
2038.76,164
2037.80,113
2036.83,48
2035.87,-6
2034.90,-11
2033.94,21
2032.97,53
2032.01,82
2031.05,96
2030.08,72
2029.12,16
2028.15,-35
2027.19,-12
2026.23,81
2025.26,130
2024.30,110
2023.33,84
2022.37,56
2021.40,36
2020.44,33
2019.48,19
2018.51,-17
2017.55,-47
2016.58,-50
2015.62,-51
2014.65,-60
2013.69,-51
2012.73,-3
2011.76,84
2010.80,181
2009.83,236
2008.87,240
2007.90,230
2006.94,199
2005.98,130
2005.01,39
2004.05,-47
2003.08,-99
2002.12,-89
2001.15,-38
2000.19,4
1999.23,-1
1998.26,-47
1997.30,-94
1996.33,-122
1995.37,-132
1994.41,-121
1993.44,-95
1992.48,-70
1991.51,-62
1990.55,-75
1989.58,-82
1988.62,-51
1987.66,0
1986.69,34
1985.73,31
1984.76,-6
1983.80,-38
1982.83,-8
1981.87,69
1980.91,113
1979.94,71
1978.98,-36
1978.01,-126
1977.05,-145
1976.08,-120
1975.12,-96
1974.16,-93
1973.19,-113
1972.23,-138
1971.26,-133
1970.30,-74
1969.34,-0
1968.37,26
1967.41,-5
1966.44,-49
1965.48,-71
1964.51,-67
1963.55,-42
1962.59,-13
1961.62,12
1960.66,10
1959.69,-55
1958.73,-147
1957.76,-196
1956.80,-204
1955.84,-181
1954.87,-105
1953.91,-38
1952.94,-19
1951.98,-11
1951.01,-34
1950.05,-86
1949.09,-96
1948.12,-53
1947.16,-25
1946.19,-54
1945.23,-105
1944.27,-123
1943.30,-88
1942.34,-15
1941.37,66
1940.41,115
1939.44,106
1938.48,46
1937.52,-35
1936.55,-100
1935.59,-109
1934.62,-76
1933.66,-57
1932.69,-60
1931.73,-37
1930.77,6
1929.80,7
1928.84,-39
1927.87,-76
1926.91,-86
1925.94,-82
1924.98,-72
1924.02,-55
1923.05,-33
1922.09,-10
1921.12,5
1920.16,12
1919.20,39
1918.23,101
1917.27,160
1916.30,163
1915.34,99
1914.37,23
1913.41,-28
1912.45,-69
1911.48,-94
1910.52,-81
1909.55,-55
1908.59,-54
1907.62,-84
1906.66,-131
1905.70,-157
1904.73,-141
1903.77,-116
1902.80,-101
1901.84,-76
1900.87,-46
1899.91,-59
1898.95,-112
1897.98,-133
1897.02,-81
1896.05,0
1895.09,38
1894.13,14
1893.16,-9
1892.20,-6
1891.23,-22
1890.27,-69
1889.30,-108
1888.34,-102
1887.38,-58
1886.41,-21
1885.45,-0
1884.48,21
1883.52,13
1882.55,-56
1881.59,-127
1880.63,-132
1879.66,-95
1878.70,-62
1877.73,-55
1876.77,-89
1875.80,-140
1874.84,-144
1873.88,-76
1872.91,19
1871.95,73
1870.98,52
1870.02,-27
1869.06,-92
1868.09,-80
1867.13,-28
1866.16,-1
1865.20,8
1864.23,3
1863.27,-27
1862.31,-63
1861.34,-95
1860.38,-132
1859.41,-161
1858.45,-143
1857.48,-79
1856.52,-27
1855.56,-14
1854.59,-10
1853.63,11
1852.66,40
1851.70,57
1850.73,16
1849.77,-58
1848.81,-82
1847.84,-44
1846.88,27
1845.91,80
1844.95,96
1843.98,107
1843.02,127
1842.06,157
1841.09,189
1840.13,151
1839.16,31
1838.20,-73
1837.24,-98
1836.27,-58
1835.31,15
1834.34,78
1833.38,89
1832.41,50
1831.45,-14
1830.49,-80
1829.52,-118
1828.56,-110
1827.59,-66
1826.63,-13
1825.66,31
1824.70,79
1823.74,115
1822.77,108
1821.81,87
1820.84,47
1819.88,-17
1818.91,-43
1817.95,-26
1816.99,-14
1816.02,-22
1815.06,-23
1814.09,-0
1813.13,26
1812.17,49
1811.20,87
1810.24,128
1809.27,132
1808.31,98
1807.34,84
1806.38,117
1805.42,136
1804.45,99
1803.49,40
1802.52,8
1801.56,15
1800.59,22
1799.63,21
1798.67,37
1797.70,74
1796.74,116
1795.77,130
1794.81,97
1793.84,75
1792.88,103
1791.92,122
1790.95,92
1789.99,52
1789.02,18
1788.06,-24
1787.10,-71
1786.13,-100
1785.17,-75
1784.20,13
1783.24,126
1782.27,177
1781.31,140
1780.35,94
1779.38,66
1778.42,43
1777.45,51
1776.49,79
1775.52,79
1774.56,37
1773.60,-29
1772.63,-93
1771.67,-126
1770.70,-102
1769.74,-25
1768.77,63
1767.81,111
1766.85,101
1765.88,52
1764.92,-17
1763.95,-66
1762.99,-40
1762.03,20
1761.06,69
1760.10,110
1759.13,97
1758.17,5
1757.20,-116
1756.24,-181
1755.28,-166
1754.31,-111
1753.35,-47
1752.38,19
1751.42,51
1750.45,26
1749.49,-8
1748.53,3
1747.56,43
1746.60,77
1745.63,79
1744.67,48
1743.70,28
1742.74,43
1741.78,63
1740.81,64
1739.85,48
1738.88,35
1737.92,20
1736.96,0
1735.99,0
1735.03,15
1734.06,25
1733.10,52
1732.13,102
1731.17,128
1730.21,132
1729.24,165
1728.28,222
1727.31,257
1726.35,246
1725.38,196
1724.42,108
1723.46,14
1722.49,-32
1721.53,-18
1720.56,44
1719.60,127
1718.63,177
1717.67,180
1716.71,164
1715.74,142
1714.78,109
1713.81,84
1712.85,85
1711.89,100
1710.92,104
1709.96,93
1708.99,78
1708.03,63
1707.06,44
1706.10,22
1705.14,15
1704.17,53
1703.21,106
1702.24,115
1701.28,98
1700.31,99
1699.35,121
1698.39,138
1697.42,132
1696.46,93
1695.49,27
1694.53,-23
1693.56,-22
1692.60,-1
1691.64,19
1690.67,61
1689.71,84
1688.74,85
1687.78,95
1686.81,103
1685.85,92
1684.89,75
1683.92,65
1682.96,46
1681.99,3
1681.03,-39
1680.07,-41
1679.10,0
1678.14,59
1677.17,126
1676.21,179
1675.24,226
1674.28,311
1673.32,370
1672.35,365
1671.39,303
1670.42,185
1669.46,50
1668.49,-27
1667.53,7
1666.57,121
1665.60,238
1664.64,299
1663.67,274
1662.71,164
1661.74,44
1660.78,13
1659.82,47
1658.85,92
1657.89,133
1656.92,127
1655.96,70
1655.00,10
1654.03,-10
1653.07,21
1652.10,79
1651.14,134
1650.17,175
1649.21,200
1648.25,199
1647.28,181
1646.32,181
1645.35,190
1644.39,189
1643.42,185
1642.46,154
1641.50,108
1640.53,84
1639.57,102
1638.60,141
1637.64,161
1636.67,154
1635.71,138
1634.75,125
1633.78,117
1632.82,120
1631.85,143
1630.89,154
1629.93,133
1628.96,93
1628.00,37
1627.03,-15
1626.07,-28
1625.10,-15
1624.14,0
1623.18,20
1622.21,37
1621.25,40
1620.28,37
1619.32,34
1618.35,-1
1617.39,-79
1616.43,-120
1615.46,-76
1614.50,0
1613.53,39
1612.57,9
1611.60,-28
1610.64,-25
1609.68,-24
1608.71,-38
1607.75,-26
1606.78,41
1605.82,131
1604.86,187
1603.89,191
1602.93,172
1601.96,139
1601.00,54
1600.03,-55
1599.07,-132
1598.11,-159
1597.14,-126
1596.18,-68
1595.21,-22
1594.25,-11
1593.28,-41
1592.32,-107
1591.36,-168
1590.39,-182
1589.43,-153
1588.46,-125
1587.50,-101
1586.53,-54
1585.57,-11
1584.61,-21
1583.64,-75
1582.68,-119
1581.71,-144
1580.75,-179
1579.79,-194
1578.82,-141
1577.86,-32
1576.89,59
1575.93,72
1574.96,-2
1574.00,-110
1573.04,-179
1572.07,-178
1571.11,-130
1570.14,-52
1569.18,-6
1568.21,-32
1567.25,-110
1566.29,-204
1565.32,-267
1564.36,-262
1563.39,-202
1562.43,-131
1561.46,-92
1560.50,-86
1559.54,-85
1558.57,-63
1557.61,-33
1556.64,-4
1555.68,21
1554.72,28
1553.75,24
1552.79,21
1551.82,15
1550.86,7
1549.89,15
1548.93,43
1547.97,65
1547.00,47
1546.04,-15
1545.07,-91
1544.11,-134
1543.14,-127
1542.18,-106
1541.22,-112
1540.25,-133
1539.29,-152
1538.32,-180
1537.36,-219
1536.39,-225
1535.43,-181
1534.47,-131
1533.50,-54
1532.54,62
1531.57,144
1530.61,155
1529.64,96
1528.68,3
1527.72,-68
1526.75,-64
1525.79,16
1524.82,98
1523.86,94
1522.90,13
1521.93,-59
1520.97,-113
1520.00,-140
1519.04,-104
1518.07,-26
1517.11,44
1516.15,70
1515.18,48
1514.22,-0
1513.25,-31
1512.29,-19
1511.32,9
1510.36,-6
1509.40,-76
1508.43,-124
1507.47,-88
1506.50,-5
1505.54,75
1504.57,75
1503.61,3
1502.65,-59
1501.68,-55
1500.72,-15
1499.75,-6
1498.79,-57
1497.83,-135
1496.86,-172
1495.90,-96
1494.93,44
1493.97,86
1493.00,4
1492.04,-104
1491.08,-169
1490.11,-173
1489.15,-127
1488.18,-74
1487.22,-65
1486.25,-76
1485.29,-54
1484.33,-35
1483.36,-67
1482.40,-108
1481.43,-113
1480.47,-88
1479.50,-36
1478.54,28
1477.58,76
1476.61,94
1475.65,86
1474.68,43
1473.72,-22
1472.76,-72
1471.79,-116
1470.83,-159
1469.86,-160
1468.90,-96
1467.93,-11
1466.97,50
1466.01,73
1465.04,72
1464.08,63
1463.11,67
1462.15,90
1461.18,71
1460.22,-17
1459.26,-53
1458.29,-0
1457.33,116
1456.36,246
1455.40,321
1454.43,303
1453.47,208
1452.51,103
1451.54,52
1450.58,67
1449.61,112
1448.65,151
1447.69,130
1446.72,27
1445.76,-69
1444.79,-84
1443.83,-49
1442.86,1
1441.90,75
1440.94,152
1439.97,139
1439.01,-7
1438.04,-177
1437.08,-237
1436.11,-187
1435.15,-94
1434.19,-1
1433.22,68
1432.26,81
1431.29,26
1430.33,-63
1429.36,-123
1428.40,-114
1427.44,-52
1426.47,55
1425.51,135
1424.54,107
1423.58,11
1422.62,-63
1421.65,-70
1420.69,-23
1419.72,36
1418.76,64
1417.79,42
1416.83,-6
1415.87,-33
1414.90,-40
1413.94,-63
1412.97,-60
1412.01,-3
1411.04,56
1410.08,63
1409.12,5
1408.15,-83
1407.19,-143
1406.22,-125
1405.26,-59
1404.29,-26
1403.33,-44
1402.37,-65
1401.40,-83
1400.44,-94
1399.47,-64
1398.51,7
1397.55,59
1396.58,43
1395.62,2
1394.65,-10
1393.69,-5
1392.72,28
1391.76,67
1390.80,59
1389.83,10
1388.87,-29
1387.90,-40
1386.94,-54
1385.97,-111
1385.01,-198
1384.05,-230
1383.08,-163
1382.12,-60
1381.15,28
1380.19,75
1379.22,67
1378.26,29
1377.30,7
1376.33,17
1375.37,37
1374.40,43
1373.44,36
1372.47,20
1371.51,30
1370.55,73
1369.58,86
1368.62,35
1367.65,-28
1366.69,-58
1365.73,-69
1364.76,-77
1363.80,-39
1362.83,34
1361.87,85
1360.90,156
1359.94,237
1358.98,260
1358.01,202
1357.05,106
1356.08,32
1355.12,0
1354.15,-1
1353.19,31
1352.23,97
1351.26,119
1350.30,88
1349.33,66
1348.37,52
1347.40,45
1346.44,63
1345.48,99
1344.51,124
1343.55,135
1342.58,145
1341.62,145
1340.66,135
1339.69,136
1338.73,147
1337.76,140
1336.80,99
1335.83,43
1334.87,2
1333.91,-15
1332.94,-17
1331.98,8
1331.01,61
1330.05,112
1329.08,155
1328.12,190
1327.16,217
1326.19,226
1325.23,212
1324.26,188
1323.30,173
1322.33,169
1321.37,165
1320.41,153
1319.44,115
1318.48,65
1317.51,19
1316.55,-11
1315.59,-6
1314.62,49
1313.66,126
1312.69,162
1311.73,132
1310.76,65
1309.80,-6
1308.84,-53
1307.87,-66
1306.91,-46
1305.94,3
1304.98,67
1304.01,101
1303.05,71
1302.09,23
1301.12,-30
1300.16,-46
1299.19,8
1298.23,79
1297.26,117
1296.30,111
1295.34,90
1294.37,85
1293.41,101
1292.44,105
1291.48,75
1290.52,46
1289.55,45
1288.59,68
1287.62,121
1286.66,203
1285.69,268
1284.73,242
1283.77,117
1282.80,-27
1281.84,-93
1280.87,-38
1279.91,84
1278.94,191
1277.98,252
1277.02,277
1276.05,277
1275.09,249
1274.12,211
1273.16,203
1272.19,235
1271.23,274
1270.27,286
1269.30,258
1268.34,214
1267.37,190
1266.41,188
1265.45,164
1264.48,166
1263.52,252
1262.55,326
1261.59,323
1260.62,263
1259.66,202
1258.70,190
1257.73,234
1256.77,305
1255.80,357
1254.84,344
1253.87,276
1252.91,181
1251.95,90
1250.98,33
1250.02,20
1249.05,41
1248.09,92
1247.12,165
1246.16,231
1245.20,264
1244.23,269
1243.27,271
1242.30,283
1241.34,283
1240.38,249
1239.41,186
1238.45,138
1237.48,157
1236.52,248
1235.55,309
1234.59,310
1233.63,272
1232.66,214
1231.70,145
1230.73,76
1229.77,21
1228.80,-21
1227.84,-48
1226.88,-32
1225.91,29
1224.95,96
1223.98,123
1223.02,106
1222.05,91
1221.09,125
1220.13,195
1219.16,229
1218.20,183
1217.23,103
1216.27,26
1215.30,-21
1214.34,-40
1213.38,-57
1212.41,-100
1211.45,-172
1210.48,-229
1209.52,-200
1208.56,-97
1207.59,7
1206.63,71
1205.66,93
1204.70,103
1203.73,140
1202.77,217
1201.81,290
1200.84,307
1199.88,260
1198.91,154
1197.95,56
1196.98,15
1196.02,30
1195.06,58
1194.09,60
1193.13,28
1192.16,-21
1191.20,-62
1190.23,-68
1189.27,-48
1188.31,-29
1187.34,-22
1186.38,-19
1185.41,-8
1184.45,0
1183.49,5
1182.52,-9
1181.56,-40
1180.59,-51
1179.63,-17
1178.66,53
1177.70,124
1176.74,156
1175.77,141
1174.81,105
1173.84,61
1172.88,19
1171.91,-4
1170.95,-21
1169.99,-48
1169.02,-85
1168.06,-105
1167.09,-101
1166.13,-45
1165.16,47
1164.20,119
1163.24,145
1162.27,131
1161.31,101
1160.34,77
1159.38,72
1158.42,93
1157.45,120
1156.49,133
1155.52,152
1154.56,163
1153.59,137
1152.63,80
1151.67,25
1150.70,-27
1149.74,-78
1148.77,-79
1147.81,-58
1146.84,-41
1145.88,-21
1144.92,14
1143.95,52
1142.99,72
1142.02,77
1141.06,85
1140.09,62
1139.13,-13
1138.17,-100
1137.20,-169
1136.24,-210
1135.27,-220
1134.31,-196
1133.35,-177
1132.38,-194
1131.42,-200
1130.45,-163
1129.49,-96
1128.52,-39
1127.56,-25
1126.60,-55
1125.63,-91
1124.67,-104
1123.70,-115
1122.74,-127
1121.77,-117
1120.81,-91
1119.85,-76
1118.88,-86
1117.92,-95
1116.95,-102
1115.99,-126
1115.02,-136
1114.06,-117
1113.10,-82
1112.13,-52
1111.17,-45
1110.20,-56
1109.24,-64
1108.28,-35
1107.31,20
1106.35,70
1105.38,111
1104.42,121
1103.45,79
1102.49,2
1101.53,-45
1100.56,-82
1099.60,-90
1098.63,-10
1097.67,103
1096.70,172
1095.74,154
1094.78,62
1093.81,-53
1092.85,-118
1091.88,-75
1090.92,33
1089.95,141
1088.99,193
1088.03,187
1087.06,177
1086.10,213
1085.13,270
1084.17,256
1083.21,207
1082.24,191
1081.28,214
1080.31,239
1079.35,231
1078.38,197
1077.42,170
1076.46,175
1075.49,207
1074.53,239
1073.56,252
1072.60,252
1071.63,251
1070.67,233
1069.71,167
1068.74,112
1067.78,161
1066.81,265
1065.85,361
1064.88,404
1063.92,376
1062.96,286
1061.99,160
1061.03,53
1060.06,43
1059.10,88
1058.13,121
1057.17,140
1056.21,166
1055.24,189
1054.28,156
1053.31,104
1052.35,107
1051.39,137
1050.42,161
1049.46,157
1048.49,122
1047.53,72
1046.56,40
1045.60,52
1044.64,81
1043.67,95
1042.71,85
1041.74,57
1040.78,33
1039.81,50
1038.85,137
1037.89,227
1036.92,224
1035.96,185
1034.99,134
1034.03,57
1033.06,-43
1032.10,-132
1031.14,-171
1030.17,-133
1029.21,-46
1028.24,38
1027.28,75
1026.32,57
1025.35,8
1024.39,-32
1023.42,-35
1022.46,13
1021.49,85
1020.53,127
1019.57,120
1018.60,85
1017.64,57
1016.67,44
1015.71,36
1014.74,40
1013.78,36
1012.82,3
1011.85,-55
1010.89,-118
1009.92,-154
1008.96,-147
1007.99,-105
1007.03,-41
1006.07,30
1005.10,85
1004.14,100
1003.17,84
1002.21,75
1001.25,102
1000.28,116
999.32,101
998.35,80
997.39,56
996.42,40
995.46,51
994.50,90
993.53,123
992.57,96
991.60,46
990.64,15
989.67,16
988.71,34
987.75,48
986.78,48
985.82,36
984.85,21
983.89,4
982.92,-24
981.96,-60
981.00,-94
980.03,-113
979.07,-116
978.10,-109
977.14,-95
976.18,-71
975.21,-29
974.25,25
973.28,80
972.32,132
971.35,221
970.39,410
969.43,645
968.46,851
967.50,979
966.53,1035
965.57,1074
964.60,1168
963.64,1291
962.68,1435
961.71,1578
960.75,1662
959.78,1651
958.82,1550
957.85,1402
956.89,1253
955.93,1133
954.96,1015
954.00,902
953.03,805
952.07,736
951.11,699
950.14,685
949.18,645
948.21,566
947.25,503
946.28,463
945.32,423
944.36,354
943.39,249
942.43,139
941.46,79
940.50,85
939.53,130
938.57,181
937.61,209
936.64,194
935.68,133
934.71,55
933.75,9
932.78,20
931.82,67
930.86,105
929.89,99
928.93,53
927.96,8
927.00,-14
926.04,-21
925.07,-15
924.11,5
923.14,32
922.18,55
921.21,78
920.25,108
919.29,123
918.32,102
917.36,53
916.39,6
915.43,-13
914.46,5
913.50,47
912.54,60
911.57,42
910.61,8
909.64,-28
908.68,-58
907.71,-74
906.75,-85
905.79,-108
904.82,-145
903.86,-174
902.89,-164
901.93,-104
900.96,-42
900.00,-53
899.04,-63
898.07,-81
897.11,-138
896.14,-209
895.18,-242
894.22,-207
893.25,-132
892.29,-44
891.32,47
890.36,127
889.39,176
888.43,179
887.47,152
886.50,149
885.54,170
884.57,175
883.61,175
882.64,193
881.68,224
880.72,215
879.75,112
878.79,7
877.82,-48
876.86,-54
875.89,-19
874.93,30
873.97,57
873.00,44
872.04,45
871.07,95
870.11,162
869.15,201
868.18,188
867.22,142
866.25,80
865.29,30
864.32,46
863.36,121
862.40,203
861.43,241
860.47,219
859.50,141
858.54,35
857.57,-47
856.61,-95
855.65,-119
854.68,-120
853.72,-93
852.75,-54
851.79,-46
850.82,-42
849.86,-13
848.90,36
847.93,83
846.97,115
846.00,133
845.04,108
844.08,48
843.11,-7
842.15,-23
841.18,10
840.22,74
839.25,134
838.29,182
837.33,233
836.36,272
835.40,280
834.43,251
833.47,205
832.50,138
831.54,75
830.58,71
829.61,107
828.65,140
827.68,135
826.72,98
825.75,56
824.79,18
823.83,-6
822.86,4
821.90,51
820.93,106
819.97,97
819.01,-7
818.04,-108
817.08,-146
816.11,-122
815.15,-73
814.18,-39
813.22,-9
812.26,15
811.29,9
810.33,-14
809.36,-37
808.40,-55
807.43,-83
806.47,-112
805.51,-122
804.54,-128
803.58,-136
802.61,-140
801.65,-126
800.68,-73
799.72,19
798.76,87
797.79,84
796.83,8
795.86,-101
794.90,-186
793.94,-198
792.97,-141
792.01,-86
791.04,-65
790.08,-85
789.11,-132
788.15,-172
787.19,-165
786.22,-134
785.26,-110
784.29,-95
783.33,-83
782.36,-57
781.40,-2
780.44,59
779.47,51
778.51,-4
777.54,-49
776.58,-54
775.61,-35
774.65,-28
773.69,-61
772.72,-136
771.76,-199
770.79,-200
769.83,-127
768.87,-27
767.90,29
766.94,48
765.97,48
765.01,47
764.04,66
763.08,108
762.12,118
761.15,51
760.19,-0
759.22,-17
758.26,-23
757.29,-49
756.33,-94
755.37,-142
754.40,-172
753.44,-172
752.47,-163
751.51,-168
750.54,-196
749.58,-223
748.62,-208
747.65,-159
746.69,-105
745.72,-72
744.76,-69
743.79,-87
742.83,-139
741.87,-216
740.90,-257
739.94,-241
738.97,-188
738.01,-142
737.05,-110
736.08,-93
735.12,-76
734.15,-41
733.19,0
732.22,25
731.26,8
730.30,-40
729.33,-56
728.37,-17
727.40,54
726.44,111
725.47,109
724.51,57
723.55,-3
722.58,-65
721.62,-112
720.65,-135
719.69,-137
718.72,-141
717.76,-146
716.80,-134
715.83,-108
714.87,-84
713.90,-82
712.94,-118
711.98,-176
711.01,-207
710.05,-192
709.08,-132
708.12,-47
707.15,30
706.19,65
705.23,78
704.26,85
703.30,67
702.33,28
701.37,-14
700.40,-50
699.44,-104
698.48,-150
697.51,-164
696.55,-145
695.58,-103
694.62,-58
693.65,-16
692.69,6
691.73,0
690.76,-24
689.80,-80
688.83,-187
687.87,-175
686.91,437
685.94,1166
684.98,1561
684.01,1588
683.05,1495
682.08,1168
681.12,375
680.16,-189
679.19,-319
678.23,-132
677.26,99
676.30,185
675.33,201
674.37,184
673.41,124
672.44,55
671.48,18
670.51,19
669.55,-12
668.58,-59
667.62,-95
666.66,-108
665.69,-92
664.73,-45
663.76,20
662.80,53
661.84,59
660.87,55
659.91,50
658.94,39
657.98,1
657.01,-51
656.05,-92
655.09,-107
654.12,-100
653.16,-82
652.19,-60
651.23,-38
650.26,-46
649.30,-75
648.34,-102
647.37,-108
646.41,-105
645.44,-90
644.48,-47
643.51,3
642.55,31
641.59,7
640.62,-74
639.66,-180
638.69,-245
637.73,-245
636.77,-186
635.80,-94
634.84,-3
633.87,27
632.91,10
631.94,-10
630.98,-22
630.02,-38
629.05,-88
628.09,-123
627.12,-108
626.16,-69
625.19,-41
624.23,-54
623.27,-114
622.30,-187
621.34,-232
620.37,-249
619.41,-251
618.44,-248
617.48,-236
616.52,-190
615.55,-129
614.59,-70
613.62,-28
612.66,-17
611.70,-43
610.73,-72
609.77,-84
608.80,-81
607.84,-64
606.87,-36
605.91,-1
604.95,32
603.98,51
603.02,48
602.05,27
601.09,-1
600.12,-25
599.16,-30
598.20,-27
597.23,-34
596.27,-57
595.30,-90
594.34,-115
593.37,-110
592.41,-65
591.45,0
590.48,54
589.52,68
588.55,28
587.59,-31
586.62,-68
585.66,-84
584.70,-85
583.73,-75
582.77,-45
581.80,-9
580.84,-7
579.88,-28
578.91,-56
577.95,-76
576.98,-72
576.02,-16
575.05,63
574.09,124
573.13,137
572.16,90
571.20,-0
570.23,-89
569.27,-153
568.30,-187
567.34,-189
566.38,-157
565.41,-98
564.45,-53
563.48,-26
562.52,-18
561.55,-40
560.59,-107
559.63,-187
558.66,-235
557.70,-240
556.73,-196
555.77,-117
554.81,-39
553.84,-20
552.88,-29
551.91,-45
550.95,-47
549.98,-22
549.02,37
548.06,81
547.09,63
546.13,5
545.16,-49
544.20,-57
543.23,-15
542.27,-4
541.31,-18
540.34,-27
539.38,-29
538.41,-49
537.45,-120
536.48,-183
535.52,-217
534.56,-228
533.59,-213
532.63,-166
531.66,-94
530.70,-46
529.74,-32
528.77,-39
527.81,-49
526.84,-55
525.88,-72
524.91,-86
523.95,-100
522.99,-119
522.02,-149
521.06,-164
520.09,-149
519.13,-141
518.16,-144
517.20,-162
516.24,-195
515.27,-247
514.31,-270
513.34,-245
512.38,-195
511.41,-156
510.45,-167
509.49,-214
508.52,-245
507.56,-248
506.59,-217
505.63,-157
504.67,-93
503.70,-71
502.74,-85
501.77,-115
500.81,-140
499.84,-147
498.88,-153
497.92,-175
496.95,-199
495.99,-213
495.02,-213
494.06,-200
493.09,-178
492.13,-148
491.17,-120
490.20,-106
489.24,-107
488.27,-90
487.31,-29
486.34,34
485.38,80
484.42,99
483.45,95
482.49,83
481.52,97
480.56,106
479.60,95
478.63,64
477.67,37
476.70,11
475.74,-27
474.77,-64
473.81,-94
472.85,-111
471.88,-123
470.92,-118
469.95,-101
468.99,-83
468.02,-69
467.06,-50
466.10,-28
465.13,-25
464.17,-26
463.20,-20
462.24,-6
461.27,-1
460.31,-17
459.35,-36
458.38,-44
457.42,-30
456.45,11
455.49,70
454.53,109
453.56,112
452.60,88
451.63,61
450.67,54
449.70,27
448.74,4
447.78,19
446.81,77
445.85,138
444.88,140
443.92,132
442.95,127
441.99,127
441.03,125
440.06,112
439.10,88
438.13,61
437.17,43
436.20,40
435.24,61
434.28,84
433.31,83
432.35,63
431.38,45
430.42,50
429.45,94
428.49,155
427.53,195
426.56,196
425.60,157
424.63,96
423.67,67
422.71,70
421.74,94
420.78,124
419.81,147
418.85,146
417.88,126
416.92,104
415.96,79
414.99,48
414.03,6
413.06,-37
412.10,-63
411.13,-72
410.17,-67
409.21,-54
408.24,-44
407.28,-41
406.31,-40
405.35,-40
404.38,-36
403.42,-19
402.46,8
401.49,23
400.53,18
399.56,-11
398.60,-59
397.64,-122
396.67,-162
395.71,-160
394.74,-121
393.78,-63
392.81,-8
391.85,44
390.89,54
389.92,11
388.96,-73
387.99,-136
387.03,-123
386.06,-79
385.10,-29
384.14,10
383.17,22
382.21,0
381.24,-40
380.28,-88
379.31,-135
378.35,-172
377.39,-195
376.42,-185
375.46,-142
374.49,-95
373.53,-73
372.57,-91
371.60,-121
370.64,-149
369.67,-166
368.71,-166
367.74,-158
366.78,-154
365.82,-143
364.85,-119
363.89,-81
362.92,-36
361.96,-5
360.99,-4
360.03,-30
359.07,-66
358.10,-87
357.14,-54
356.17,33
355.21,141
354.24,239
353.28,296
352.32,273
351.35,148
350.39,20
349.42,-68
348.46,-95
347.50,-68
346.53,-8
345.57,37
344.60,66
343.64,85
342.67,97
341.71,85
340.75,40
339.78,-6
338.82,-27
337.85,-8
336.89,28
335.92,23
334.96,-4
334.00,-34
333.03,-53
332.07,-70
331.10,-97
330.14,-121
329.17,-118
328.21,-77
327.25,-2
326.28,66
325.32,103
324.35,111
323.39,95
322.43,69
321.46,60
320.50,68
319.53,65
318.57,48
317.60,22
316.64,17
315.68,23
314.71,38
313.75,63
312.78,91
311.82,112
310.85,134
309.89,146
308.93,133
307.96,84
307.00,-1
306.03,-90
305.07,-139
304.10,-128
303.14,-61
302.18,27
301.21,71
300.25,84
299.28,71
298.32,36
297.36,-13
296.39,-16
295.43,12
294.46,43
293.50,62
292.53,63
291.57,39
290.61,12
289.64,-5
288.68,-8
287.71,4
286.75,31
285.78,55
284.82,62
283.86,52
282.89,37
281.93,36
280.96,39
280.00,44
279.03,43
278.07,31
277.11,1
276.14,-22
275.18,-36
274.21,-40
273.25,-29
272.28,14
271.32,66
270.36,100
269.39,114
268.43,111
267.46,103
266.50,94
265.54,81
264.57,66
263.61,49
262.64,29
261.68,9
260.71,6
259.75,27
258.79,64
257.82,89
256.86,72
255.89,39
254.93,10
253.96,-3
253.00,6
252.04,50
251.07,97
250.11,128
249.14,134
248.18,117
247.21,101
246.25,89
245.29,77
244.32,60
243.36,40
242.39,23
241.43,6
240.47,-7
239.50,-9
238.54,11
237.57,32
236.61,37
235.64,37
234.68,46
233.72,79
232.75,111
231.79,119
230.82,102
229.86,68
228.89,42
227.93,61
226.97,89
226.00,106
225.04,102
224.07,88
223.11,80
222.14,70
221.18,60
220.22,52
219.25,42
218.29,42
217.32,56
216.36,75
215.40,81
214.43,50
213.47,0
212.50,-26
211.54,-19
210.57,18
209.61,68
208.65,113
207.68,130
206.72,104
205.75,34
204.79,-47
203.82,-65
202.86,-36
201.90,12
200.93,52
199.97,63
199.00,59
198.04,57
197.07,62
196.11,80
195.15,99
194.18,106
193.22,107
192.25,110
191.29,118
190.33,128
189.36,128
188.40,114
187.43,87
186.47,54
185.50,45
184.54,54
183.58,59
182.61,45
181.65,6
180.68,-44
179.72,-81
178.75,-92
177.79,-78
176.83,-49
175.86,-22
174.90,3
173.93,24
172.97,39
172.00,48
171.04,36
170.08,4
169.11,-40
168.15,-88
167.18,-127
166.22,-143
165.26,-131
164.29,-99
163.33,-58
162.36,-26
161.40,-7
160.43,11
159.47,38
158.51,85
157.54,139
156.58,147
155.61,123
154.65,85
153.68,54
152.72,38
151.76,15
150.79,-14
149.83,-40
148.86,-48
147.90,-32
146.93,-14
145.97,1
145.01,8
144.04,5
143.08,-2
142.11,-0
141.15,11
140.19,29
139.22,54
138.26,91
137.29,127
136.33,155
135.36,164
134.40,123
133.44,44
132.47,-30
131.51,-74
130.54,-68
129.58,-4
128.61,65
127.65,107
126.69,108
125.72,67
124.76,26
123.79,-8
122.83,-38
121.86,-58
120.90,-49
119.94,-2
118.97,48
118.01,82
117.04,83
116.08,43
115.11,-0
114.15,-31
113.19,-50
112.22,-64
111.26,-75
110.29,-64
109.33,-29
108.37,19
107.40,61
106.44,63
105.47,49
104.51,36
103.54,33
102.58,37
101.62,33
100.65,29
99.69,27
98.72,29
97.76,23
96.79,-1
95.83,-23
94.87,-35
93.90,-29
92.94,-2
91.97,33
91.01,71
90.04,107
89.08,140
88.12,154
87.15,150
86.19,134
85.22,116
84.26,105
83.30,104
82.33,107
81.37,102
80.40,74
79.44,20
78.47,-16
77.51,-39
76.55,-49
