Created As Omnic File,PLAS 194
Raman Shift / cm-1,INT
3418.58,-35
3417.61,-12
3416.65,-6
3415.68,-5
3414.72,15
3413.76,40
3412.79,39
3411.83,17
3410.86,-7
3409.90,0
3408.94,50
3407.97,86
3407.01,81
3406.04,60
3405.08,49
3404.11,73
3403.15,116
3402.19,139
3401.22,128
3400.26,97
3399.29,77
3398.33,55
3397.36,47
3396.40,69
3395.44,82
3394.47,86
3393.51,94
3392.54,105
3391.58,117
3390.61,127
3389.65,125
3388.69,95
3387.72,66
3386.76,57
3385.79,64
3384.83,75
3383.87,76
3382.90,76
3381.94,82
3380.97,74
3380.01,40
3379.04,9
3378.08,9
3377.12,29
3376.15,62
3375.19,79
3374.22,77
3373.26,64
3372.29,44
3371.33,36
3370.37,29
3369.40,10
3368.44,3
3367.47,8
3366.51,0
3365.54,-15
3364.58,-5
3363.62,14
3362.65,29
3361.69,34
3360.72,15
3359.76,-7
3358.80,-0
3357.83,27
3356.87,65
3355.90,91
3354.94,83
3353.97,66
3353.01,45
3352.05,29
3351.08,36
3350.12,63
3349.15,88
3348.19,95
3347.22,90
3346.26,92
3345.30,103
3344.33,116
3343.37,109
3342.40,96
3341.44,90
3340.47,82
3339.51,89
3338.55,96
3337.58,86
3336.62,73
3335.65,62
3334.69,57
3333.73,65
3332.76,81
3331.80,98
3330.83,102
3329.87,74
3328.90,22
3327.94,-14
3326.98,0
3326.01,45
3325.05,85
3324.08,87
3323.12,54
3322.15,12
3321.19,17
3320.23,49
3319.26,64
3318.30,69
3317.33,68
3316.37,57
3315.40,42
3314.44,38
3313.48,42
3312.51,39
3311.55,29
3310.58,23
3309.62,46
3308.66,68
3307.69,58
3306.73,45
3305.76,40
3304.80,39
3303.83,41
3302.87,46
3301.91,47
3300.94,39
3299.98,37
3299.01,48
3298.05,60
3297.08,66
3296.12,54
3295.16,43
3294.19,67
3293.23,108
3292.26,134
3291.30,120
3290.33,65
3289.37,10
3288.41,8
3287.44,26
3286.48,17
3285.51,0
3284.55,13
3283.59,46
3282.62,69
3281.66,78
3280.69,73
3279.73,68
3278.76,63
3277.80,47
3276.84,25
3275.87,3
3274.91,-4
3273.94,2
3272.98,7
3272.01,8
3271.05,16
3270.09,24
3269.12,16
3268.16,-5
3267.19,-31
3266.23,-28
3265.26,-8
3264.30,-2
3263.34,-3
3262.37,15
3261.41,35
3260.44,39
3259.48,36
3258.51,19
3257.55,8
3256.59,13
3255.62,6
3254.66,-6
3253.69,-13
3252.73,-18
3251.77,-16
3250.80,-13
3249.84,-13
3248.87,-14
3247.91,-21
3246.94,-24
3245.98,-5
3245.02,11
3244.05,30
3243.09,42
3242.12,32
3241.16,16
3240.19,15
3239.23,39
3238.27,79
3237.30,110
3236.34,113
3235.37,111
3234.41,121
3233.44,137
3232.48,162
3231.52,182
3230.55,194
3229.59,210
3228.62,219
3227.66,215
3226.70,208
3225.73,199
3224.77,207
3223.80,225
3222.84,227
3221.87,216
3220.91,210
3219.95,217
3218.98,219
3218.02,204
3217.05,184
3216.09,174
3215.12,180
3214.16,187
3213.20,166
3212.23,122
3211.27,114
3210.30,112
3209.34,96
3208.37,79
3207.41,56
3206.45,36
3205.48,39
3204.52,48
3203.55,61
3202.59,78
3201.63,79
3200.66,82
3199.70,83
3198.73,68
3197.77,44
3196.80,29
3195.84,34
3194.88,50
3193.91,58
3192.95,46
3191.98,19
3191.02,8
3190.05,12
3189.09,4
3188.13,4
3187.16,30
3186.20,57
3185.23,57
3184.27,38
3183.30,26
3182.34,13
3181.38,-7
3180.41,-8
3179.45,10
3178.48,15
3177.52,7
3176.56,19
3175.59,36
3174.63,15
3173.66,-27
3172.70,-54
3171.73,-41
3170.77,4
3169.81,41
3168.84,44
3167.88,23
3166.91,4
3165.95,-11
3164.98,-44
3164.02,-78
3163.06,-81
3162.09,-58
3161.13,-29
3160.16,-6
3159.20,1
3158.23,-21
3157.27,-45
3156.31,-33
3155.34,0
3154.38,37
3153.41,39
3152.45,2
3151.49,-32
3150.52,-43
3149.56,-43
3148.59,-41
3147.63,-35
3146.66,-14
3145.70,23
3144.74,14
3143.77,-21
3142.81,-36
3141.84,-35
3140.88,-21
3139.91,-15
3138.95,-35
3137.99,-53
3137.02,-50
3136.06,-51
3135.09,-59
3134.13,-65
3133.16,-63
3132.20,-46
3131.24,-32
3130.27,-36
3129.31,-46
3128.34,-48
3127.38,-49
3126.42,-55
3125.45,-44
3124.49,0
3123.52,49
3122.56,47
3121.59,4
3120.63,-1
3119.67,29
3118.70,57
3117.74,69
3116.77,76
3115.81,81
3114.84,82
3113.88,95
3112.92,146
3111.95,213
3110.99,265
3110.02,307
3109.06,337
3108.09,360
3107.13,377
3106.17,390
3105.20,422
3104.24,466
3103.27,505
3102.31,565
3101.34,639
3100.38,702
3099.42,768
3098.45,830
3097.49,896
3096.52,971
3095.56,1056
3094.60,1154
3093.63,1269
3092.67,1428
3091.70,1635
3090.74,1854
3089.77,2093
3088.81,2358
3087.85,2616
3086.88,2842
3085.92,3060
3084.95,3291
3083.99,3519
3083.02,3710
3082.06,3833
3081.10,3860
3080.13,3825
3079.17,3742
3078.20,3593
3077.24,3379
3076.27,3163
3075.31,2954
3074.35,2754
3073.38,2550
3072.42,2362
3071.45,2221
3070.49,2120
3069.53,2037
3068.56,1955
3067.60,1870
3066.63,1780
3065.67,1691
3064.70,1575
3063.74,1433
3062.78,1312
3061.81,1198
3060.85,1070
3059.88,948
3058.92,856
3057.95,790
3056.99,742
3056.03,685
3055.06,600
3054.10,538
3053.13,529
3052.17,528
3051.20,495
3050.24,442
3049.28,396
3048.31,362
3047.35,338
3046.38,329
3045.42,313
3044.46,275
3043.49,230
3042.53,209
3041.56,235
3040.60,275
3039.63,304
3038.67,314
3037.71,312
3036.74,312
3035.78,312
3034.81,311
3033.85,318
3032.88,324
3031.92,341
3030.96,387
3029.99,421
3029.03,411
3028.06,399
3027.10,410
3026.13,434
3025.17,451
3024.21,458
3023.24,479
3022.28,513
3021.31,531
3020.35,524
3019.39,528
3018.42,571
3017.46,626
3016.49,676
3015.53,717
3014.56,741
3013.60,755
3012.64,775
3011.67,803
3010.71,824
3009.74,833
3008.78,852
3007.81,908
3006.85,972
3005.89,1026
3004.92,1075
3003.96,1111
3002.99,1134
3002.03,1154
3001.06,1170
3000.10,1179
2999.14,1197
2998.17,1225
2997.21,1224
2996.24,1198
2995.28,1187
2994.32,1194
2993.35,1230
2992.39,1265
2991.42,1282
2990.46,1309
2989.49,1357
2988.53,1407
2987.57,1441
2986.60,1445
2985.64,1447
2984.67,1470
2983.71,1505
2982.74,1554
2981.78,1622
2980.82,1698
2979.85,1775
2978.89,1850
2977.92,1917
2976.96,1984
2975.99,2067
2975.03,2163
2974.07,2258
2973.10,2351
2972.14,2446
2971.17,2532
2970.21,2611
2969.25,2708
2968.28,2823
2967.32,2946
2966.35,3061
2965.39,3152
2964.42,3228
2963.46,3295
2962.50,3339
2961.53,3386
2960.57,3436
2959.60,3472
2958.64,3496
2957.67,3510
2956.71,3513
2955.75,3514
2954.78,3504
2953.82,3458
2952.85,3390
2951.89,3350
2950.92,3350
2949.96,3343
2949.00,3305
2948.03,3248
2947.07,3183
2946.10,3101
2945.14,2995
2944.17,2901
2943.21,2842
2942.25,2798
2941.28,2748
2940.32,2696
2939.35,2648
2938.39,2575
2937.43,2472
2936.46,2411
2935.50,2379
2934.53,2332
2933.57,2284
2932.60,2231
2931.64,2165
2930.68,2097
2929.71,2041
2928.75,2000
2927.78,1980
2926.82,1974
2925.85,1956
2924.89,1918
2923.93,1881
2922.96,1845
2922.00,1821
2921.03,1819
2920.07,1820
2919.10,1806
2918.14,1794
2917.18,1800
2916.21,1799
2915.25,1767
2914.28,1725
2913.32,1697
2912.36,1693
2911.39,1709
2910.43,1725
2909.46,1735
2908.50,1745
2907.53,1747
2906.57,1735
2905.61,1725
2904.64,1717
2903.68,1718
2902.71,1755
2901.75,1822
2900.78,1867
2899.82,1862
2898.86,1859
2897.89,1897
2896.93,1948
2895.96,1959
2895.00,1949
2894.03,1971
2893.07,2011
2892.11,2025
2891.14,2043
2890.18,2068
2889.21,2070
2888.25,2047
2887.29,2024
2886.32,2021
2885.36,2029
2884.39,2011
2883.43,1955
2882.46,1900
2881.50,1864
2880.54,1824
2879.57,1803
2878.61,1793
2877.64,1736
2876.68,1646
2875.71,1582
2874.75,1557
2873.79,1550
2872.82,1538
2871.86,1507
2870.89,1456
2869.93,1416
2868.96,1429
2868.00,1475
2867.04,1527
2866.07,1570
2865.11,1583
2864.14,1612
2863.18,1691
2862.22,1752
2861.25,1758
2860.29,1753
2859.32,1773
2858.36,1804
2857.39,1825
2856.43,1816
2855.47,1781
2854.50,1750
2853.54,1712
2852.57,1637
2851.61,1519
2850.64,1402
2849.68,1315
2848.72,1223
2847.75,1091
2846.79,957
2845.82,851
2844.86,757
2843.89,658
2842.93,570
2841.97,506
2841.00,445
2840.04,382
2839.07,326
2838.11,271
2837.15,214
2836.18,165
2835.22,129
2834.25,97
2833.29,74
2832.32,76
2831.36,88
2830.40,90
2829.43,77
2828.47,51
2827.50,35
2826.54,41
2825.57,37
2824.61,11
2823.65,-11
2822.68,-6
2821.72,29
2820.75,71
2819.79,86
2818.82,63
2817.86,28
2816.90,4
2815.93,-5
2814.97,6
2814.00,27
2813.04,26
2812.08,-1
2811.11,-27
2810.15,-27
2809.18,-2
2808.22,17
2807.25,-1
2806.29,-27
2805.33,-29
2804.36,-24
2803.40,-20
2802.43,-18
2801.47,-18
2800.50,-25
2799.54,-39
2798.58,-39
2797.61,-16
2796.65,0
2795.68,-10
2794.72,-17
2793.75,-16
2792.79,-12
2791.83,-9
2790.86,-14
2789.90,-25
2788.93,-25
2787.97,-5
2787.00,25
2786.04,50
2785.08,67
2784.11,72
2783.15,62
2782.18,44
2781.22,25
2780.26,10
2779.29,6
2778.33,6
2777.36,21
2776.40,54
2775.43,60
2774.47,20
2773.51,5
2772.54,35
2771.58,55
2770.61,46
2769.65,19
2768.68,-1
2767.72,-3
2766.76,-2
2765.79,-7
2764.83,-12
2763.86,-6
2762.90,15
2761.93,32
2760.97,21
2760.01,10
2759.04,20
2758.08,32
2757.11,31
2756.15,15
2755.19,0
2754.22,-4
2753.26,9
2752.29,31
2751.33,57
2750.36,78
2749.40,83
2748.44,71
2747.47,67
2746.51,53
2745.54,8
2744.58,-30
2743.61,-24
2742.65,2
2741.69,25
2740.72,35
2739.76,33
2738.79,23
2737.83,6
2736.86,-10
2735.90,-11
2734.94,4
2733.97,27
2733.01,49
2732.04,47
2731.08,33
2730.12,22
2729.15,21
2728.19,29
2727.22,42
2726.26,51
2725.29,49
2724.33,36
2723.37,25
2722.40,24
2721.44,26
2720.47,-0
2719.51,-37
2718.54,-14
2717.58,44
2716.62,83
2715.65,86
2714.69,67
2713.72,40
2712.76,18
2711.79,9
2710.83,5
2709.87,7
2708.90,11
2707.94,-3
2706.97,-20
2706.01,-22
2705.05,-34
2704.08,-39
2703.12,-18
2702.15,8
2701.19,15
2700.22,1
2699.26,-19
2698.30,-32
2697.33,-26
2696.37,-4
2695.40,10
2694.44,8
2693.47,1
2692.51,-2
2691.55,11
2690.58,40
2689.62,63
2688.65,58
2687.69,40
2686.72,35
2685.76,48
2684.80,64
2683.83,70
2682.87,58
2681.90,35
2680.94,15
2679.98,13
2679.01,31
2678.05,51
2677.08,52
2676.12,46
2675.15,49
2674.19,47
2673.23,22
2672.26,-5
2671.30,-3
2670.33,14
2669.37,13
2668.40,2
2667.44,-4
2666.48,0
2665.51,19
2664.55,38
2663.58,28
2662.62,-3
2661.65,-16
2660.69,-7
2659.73,-8
2658.76,-18
2657.80,7
2656.83,47
2655.87,56
2654.91,40
2653.94,26
2652.98,27
2652.01,31
2651.05,29
2650.08,30
2649.12,29
2648.16,17
2647.19,4
2646.23,1
2645.26,11
2644.30,25
2643.33,45
2642.37,75
2641.41,104
2640.44,114
2639.48,97
2638.51,64
2637.55,39
2636.58,29
2635.62,26
2634.66,23
2633.69,21
2632.73,22
2631.76,35
2630.80,57
2629.83,83
2628.87,118
2627.91,156
2626.94,165
2625.98,130
2625.01,80
2624.05,59
2623.09,68
2622.12,74
2621.16,69
2620.19,72
2619.23,80
2618.26,72
2617.30,56
2616.34,56
2615.37,64
2614.41,52
2613.44,25
2612.48,14
2611.51,25
2610.55,30
2609.59,27
2608.62,28
2607.66,22
2606.69,8
2605.73,-3
2604.76,-5
2603.80,6
2602.84,15
2601.87,12
2600.91,3
2599.94,-7
2598.98,-14
2598.02,-17
2597.05,-23
2596.09,-34
2595.12,-36
2594.16,-31
2593.19,-25
2592.23,-13
2591.27,-7
2590.30,-18
2589.34,-34
2588.37,-36
2587.41,-29
2586.44,-33
2585.48,-43
2584.52,-43
2583.55,-48
2582.59,-66
2581.62,-68
2580.66,-48
2579.69,-23
2578.73,-13
2577.77,-27
2576.80,-46
2575.84,-51
2574.87,-45
2573.91,-35
2572.95,-20
2571.98,-19
2571.02,-32
2570.05,-32
2569.09,-28
2568.12,-25
2567.16,-11
2566.20,-2
2565.23,-9
2564.27,-19
2563.30,-25
2562.34,-21
2561.37,-7
2560.41,0
2559.45,-12
2558.48,-29
2557.52,-43
2556.55,-43
2555.59,-30
2554.62,-21
2553.66,-29
2552.70,-51
2551.73,-72
2550.77,-79
2549.80,-77
2548.84,-75
2547.88,-71
2546.91,-65
2545.95,-64
2544.98,-66
2544.02,-57
2543.05,-35
2542.09,-13
2541.13,-17
2540.16,-45
2539.20,-66
2538.23,-56
2537.27,-31
2536.30,-20
2535.34,-21
2534.38,-18
2533.41,-14
2532.45,-16
2531.48,-25
2530.52,-41
2529.55,-51
2528.59,-33
2527.63,-4
2526.66,9
2525.70,9
2524.73,14
2523.77,16
2522.81,1
2521.84,-14
2520.88,-14
2519.91,-2
2518.95,7
2517.98,-5
2517.02,-17
2516.06,-14
2515.09,-9
2514.13,-3
2513.16,14
2512.20,29
2511.23,14
2510.27,-19
2509.31,-34
2508.34,-13
2507.38,21
2506.41,36
2505.45,31
2504.48,17
2503.52,8
2502.56,7
2501.59,10
2500.63,11
2499.66,10
2498.70,13
2497.74,24
2496.77,38
2495.81,43
2494.84,32
2493.88,5
2492.91,-14
2491.95,-18
2490.99,-2
2490.02,31
2489.06,56
2488.09,54
2487.13,31
2486.16,-0
2485.20,-21
2484.24,-14
2483.27,13
2482.31,39
2481.34,52
2480.38,50
2479.41,34
2478.45,12
2477.49,0
2476.52,3
2475.56,7
2474.59,-3
2473.63,-15
2472.66,-21
2471.70,-30
2470.74,-28
2469.77,-10
2468.81,-10
2467.84,-21
2466.88,-6
2465.92,20
2464.95,16
2463.99,-7
2463.02,-21
2462.06,-20
2461.09,-18
2460.13,-16
2459.17,-16
2458.20,-24
2457.24,-38
2456.27,-59
2455.31,-67
2454.34,-40
2453.38,-0
2452.42,25
2451.45,25
2450.49,5
2449.52,-17
2448.56,-20
2447.59,-14
2446.63,-17
2445.67,-26
2444.70,-19
2443.74,17
2442.77,64
2441.81,101
2440.85,111
2439.88,103
2438.92,79
2437.95,44
2436.99,23
2436.02,22
2435.06,27
2434.10,27
2433.13,36
2432.17,58
2431.20,85
2430.24,91
2429.27,82
2428.31,69
2427.35,49
2426.38,32
2425.42,20
2424.45,14
2423.49,19
2422.52,29
2421.56,42
2420.60,58
2419.63,70
2418.67,70
2417.70,66
2416.74,61
2415.78,42
2414.81,16
2413.85,-1
2412.88,-16
2411.92,-26
2410.95,-11
2409.99,22
2409.03,38
2408.06,33
2407.10,17
2406.13,-4
2405.17,-12
2404.20,4
2403.24,28
2402.28,44
2401.31,46
2400.35,39
2399.38,39
2398.42,45
2397.45,51
2396.49,54
2395.53,54
2394.56,48
2393.60,42
2392.63,38
2391.67,24
2390.71,10
2389.74,8
2388.78,17
2387.81,48
2386.85,76
2385.88,75
2384.92,58
2383.96,44
2382.99,34
2382.03,22
2381.06,24
2380.10,46
2379.13,76
2378.17,102
2377.21,116
2376.24,114
2375.28,95
2374.31,65
2373.35,31
2372.38,11
2371.42,12
2370.46,26
2369.49,33
2368.53,31
2367.56,37
2366.60,52
2365.64,60
2364.67,53
2363.71,28
2362.74,-2
2361.78,-5
2360.81,17
2359.85,34
2358.89,28
2357.92,6
2356.96,-11
2355.99,-9
2355.03,12
2354.06,39
2353.10,44
2352.14,26
2351.17,17
2350.21,21
2349.24,34
2348.28,54
2347.31,73
2346.35,77
2345.39,55
2344.42,19
2343.46,-0
2342.49,4
2341.53,10
2340.57,8
2339.60,13
2338.64,34
2337.67,52
2336.71,40
2335.74,11
2334.78,-6
2333.82,-10
2332.85,-7
2331.89,4
2330.92,19
2329.96,35
2328.99,51
2328.03,62
2327.07,59
2326.10,55
2325.14,57
2324.17,60
2323.21,62
2322.24,58
2321.28,45
2320.32,32
2319.35,30
2318.39,37
2317.42,47
2316.46,54
2315.49,55
2314.53,53
2313.57,53
2312.60,55
2311.64,50
2310.67,46
2309.71,48
2308.75,47
2307.78,42
2306.82,36
2305.85,30
2304.89,25
2303.92,24
2302.96,29
2302.00,28
2301.03,15
2300.07,11
2299.10,25
2298.14,28
2297.17,17
2296.21,21
2295.25,27
2294.28,14
2293.32,1
2292.35,7
2291.39,22
2290.42,25
2289.46,14
2288.50,-5
2287.53,-19
2286.57,-15
2285.60,-1
2284.64,10
2283.68,26
2282.71,41
2281.75,38
2280.78,27
2279.82,25
2278.85,27
2277.89,22
2276.93,16
2275.96,19
2275.00,27
2274.03,26
2273.07,16
2272.10,6
2271.14,8
2270.18,15
2269.21,7
2268.25,-12
2267.28,-18
2266.32,-14
2265.35,-11
2264.39,-8
2263.43,-0
2262.46,10
2261.50,20
2260.53,33
2259.57,41
2258.61,23
2257.64,-23
2256.68,-56
2255.71,-69
2254.75,-65
2253.78,-38
2252.82,-9
2251.86,6
2250.89,7
2249.93,0
2248.96,14
2248.00,49
2247.03,47
2246.07,2
2245.11,-27
2244.14,-32
2243.18,-29
2242.21,-17
2241.25,-12
2240.28,-14
2239.32,-11
2238.36,3
2237.39,16
2236.43,13
2235.46,-8
2234.50,-33
2233.54,-37
2232.57,-27
2231.61,-20
2230.64,-11
2229.68,-4
2228.71,-17
2227.75,-32
2226.79,-33
2225.82,-30
2224.86,-26
2223.89,-18
2222.93,-10
2221.96,-5
2221.00,-1
2220.04,0
2219.07,-13
2218.11,-38
2217.14,-50
2216.18,-36
2215.21,-1
2214.25,31
2213.29,30
2212.32,2
2211.36,-21
2210.39,-22
2209.43,-10
2208.47,0
2207.50,2
2206.54,-4
2205.57,-12
2204.61,-12
2203.64,5
2202.68,27
2201.72,39
2200.75,41
2199.79,41
2198.82,42
2197.86,37
2196.89,21
2195.93,-4
2194.97,-28
2194.00,-42
2193.04,-37
2192.07,-15
2191.11,6
2190.14,13
2189.18,15
2188.22,19
2187.25,20
2186.29,22
2185.32,26
2184.36,24
2183.40,15
2182.43,2
2181.47,-14
2180.50,-31
2179.54,-41
2178.57,-41
2177.61,-35
2176.65,-24
2175.68,-11
2174.72,-11
2173.75,-23
2172.79,-33
2171.82,-31
2170.86,-22
2169.90,-12
2168.93,-6
2167.97,-6
2167.00,-12
2166.04,-17
2165.07,-13
2164.11,-9
2163.15,-12
2162.18,-16
2161.22,-20
2160.25,-24
2159.29,-20
2158.32,-8
2157.36,3
2156.40,6
2155.43,3
2154.47,-1
2153.50,-10
2152.54,-22
2151.58,-20
2150.61,-1
2149.65,9
2148.68,3
2147.72,-1
2146.75,6
2145.79,16
2144.83,23
2143.86,22
2142.90,6
2141.93,-23
2140.97,-49
2140.00,-62
2139.04,-64
2138.08,-59
2137.11,-50
2136.15,-42
2135.18,-42
2134.22,-43
2133.25,-32
2132.29,-14
2131.33,-0
2130.36,7
2129.40,3
2128.43,-10
2127.47,-22
2126.51,-26
2125.54,-24
2124.58,-22
2123.61,-20
2122.65,-22
2121.68,-21
2120.72,-14
2119.76,-4
2118.79,11
2117.83,12
2116.86,-3
2115.90,-13
2114.93,-10
2113.97,-9
2113.01,-16
2112.04,-15
2111.08,1
2110.11,14
2109.15,7
2108.18,-10
2107.22,-10
2106.26,1
2105.29,-6
2104.33,-15
2103.36,-9
2102.40,3
2101.44,19
2100.47,36
2099.51,40
2098.54,19
2097.58,-8
2096.61,-18
2095.65,-20
2094.69,-34
2093.72,-50
2092.76,-42
2091.79,-13
2090.83,3
2089.86,-3
2088.90,-9
2087.94,-4
2086.97,1
2086.01,-1
2085.04,-2
2084.08,-2
2083.11,-4
2082.15,1
2081.19,10
2080.22,8
2079.26,0
2078.29,11
2077.33,38
2076.37,49
2075.40,33
2074.44,10
2073.47,4
2072.51,6
2071.54,-1
2070.58,-16
2069.62,-22
2068.65,-12
2067.69,0
2066.72,1
2065.76,8
2064.79,33
2063.83,54
2062.87,54
2061.90,40
2060.94,20
2059.97,2
2059.01,-7
2058.04,-8
2057.08,-7
2056.12,-8
2055.15,-14
2054.19,-15
2053.22,-8
2052.26,-5
2051.30,-12
2050.33,-19
2049.37,-21
2048.40,-4
2047.44,27
2046.47,41
2045.51,31
2044.55,19
2043.58,19
2042.62,25
2041.65,37
2040.69,50
2039.72,49
2038.76,33
2037.80,23
2036.83,17
2035.87,-2
2034.90,-19
2033.94,-20
2032.97,-16
2032.01,-12
2031.05,-11
2030.08,-17
2029.12,-28
2028.15,-38
2027.19,-37
2026.23,-22
2025.26,-4
2024.30,7
2023.33,10
2022.37,4
2021.40,-4
2020.44,-12
2019.48,-21
2018.51,-29
2017.55,-32
2016.58,-32
2015.62,-32
2014.65,-35
2013.69,-33
2012.73,-24
2011.76,-8
2010.80,19
2009.83,52
2008.87,70
2007.90,65
2006.94,51
2005.98,40
2005.01,29
2004.05,17
2003.08,10
2002.12,8
2001.15,2
2000.19,-4
1999.23,-10
1998.26,-20
1997.30,-25
1996.33,-21
1995.37,-20
1994.41,-16
1993.44,-12
1992.48,-11
1991.51,-9
1990.55,-6
1989.58,-4
1988.62,0
1987.66,8
1986.69,14
1985.73,13
1984.76,16
1983.80,26
1982.83,35
1981.87,43
1980.91,42
1979.94,21
1978.98,-11
1978.01,-32
1977.05,-31
1976.08,-18
1975.12,-5
1974.16,-2
1973.19,-6
1972.23,-13
1971.26,-10
1970.30,7
1969.34,29
1968.37,39
1967.41,35
1966.44,25
1965.48,13
1964.51,5
1963.55,14
1962.59,31
1961.62,39
1960.66,32
1959.69,4
1958.73,-34
1957.76,-56
1956.80,-43
1955.84,-17
1954.87,-2
1953.91,0
1952.94,-4
1951.98,-10
1951.01,-10
1950.05,-5
1949.09,1
1948.12,7
1947.16,9
1946.19,4
1945.23,-5
1944.27,-10
1943.30,-7
1942.34,4
1941.37,14
1940.41,22
1939.44,21
1938.48,13
1937.52,2
1936.55,-5
1935.59,-2
1934.62,6
1933.66,3
1932.69,-10
1931.73,-12
1930.77,-3
1929.80,-5
1928.84,-23
1927.87,-37
1926.91,-36
1925.94,-28
1924.98,-16
1924.02,-0
1923.05,7
1922.09,9
1921.12,16
1920.16,26
1919.20,32
1918.23,30
1917.27,29
1916.30,30
1915.34,25
1914.37,15
1913.41,10
1912.45,2
1911.48,-7
1910.52,-5
1909.55,4
1908.59,8
1907.62,5
1906.66,-7
1905.70,-22
1904.73,-31
1903.77,-28
1902.80,-17
1901.84,-1
1900.87,15
1899.91,18
1898.95,8
1897.98,3
1897.02,9
1896.05,19
1895.09,29
1894.13,27
1893.16,22
1892.20,19
1891.23,14
1890.27,3
1889.30,-7
1888.34,-9
1887.38,1
1886.41,23
1885.45,48
1884.48,58
1883.52,42
1882.55,10
1881.59,-16
1880.63,-21
1879.66,-8
1878.70,8
1877.73,20
1876.77,20
1875.80,9
1874.84,3
1873.88,15
1872.91,37
1871.95,48
1870.98,38
1870.02,15
1869.06,-0
1868.09,7
1867.13,26
1866.16,39
1865.20,38
1864.23,25
1863.27,12
1862.31,6
1861.34,2
1860.38,-6
1859.41,-15
1858.45,-10
1857.48,8
1856.52,22
1855.56,24
1854.59,23
1853.63,25
1852.66,29
1851.70,32
1850.73,22
1849.77,3
1848.81,-5
1847.84,-2
1846.88,4
1845.91,9
1844.95,9
1843.98,15
1843.02,34
1842.06,58
1841.09,72
1840.13,62
1839.16,26
1838.20,-10
1837.24,-16
1836.27,4
1835.31,29
1834.34,40
1833.38,37
1832.41,32
1831.45,25
1830.49,14
1829.52,5
1828.56,6
1827.59,17
1826.63,31
1825.66,48
1824.70,68
1823.74,87
1822.77,96
1821.81,97
1820.84,91
1819.88,71
1818.91,54
1817.95,52
1816.99,60
1816.02,63
1815.06,63
1814.09,65
1813.13,74
1812.17,86
1811.20,101
1810.24,114
1809.27,117
1808.31,111
1807.34,108
1806.38,113
1805.42,113
1804.45,105
1803.49,96
1802.52,92
1801.56,93
1800.59,96
1799.63,99
1798.67,105
1797.70,110
1796.74,114
1795.77,118
1794.81,117
1793.84,116
1792.88,123
1791.92,133
1790.95,140
1789.99,142
1789.02,135
1788.06,121
1787.10,110
1786.13,110
1785.17,120
1784.20,141
1783.24,169
1782.27,190
1781.31,191
1780.35,183
1779.38,176
1778.42,180
1777.45,198
1776.49,218
1775.52,228
1774.56,224
1773.60,211
1772.63,198
1771.67,196
1770.70,213
1769.74,246
1768.77,283
1767.81,308
1766.85,314
1765.88,314
1764.92,329
1763.95,359
1762.99,395
1762.03,436
1761.06,464
1760.10,480
1759.13,501
1758.17,523
1757.20,546
1756.24,585
1755.28,646
1754.31,723
1753.35,807
1752.38,892
1751.42,970
1750.45,1057
1749.49,1185
1748.53,1350
1747.56,1538
1746.60,1743
1745.63,1967
1744.67,2207
1743.70,2496
1742.74,2844
1741.78,3225
1740.81,3624
1739.85,4039
1738.88,4463
1737.92,4891
1736.96,5302
1735.99,5705
1735.03,6108
1734.06,6506
1733.10,6883
1732.13,7220
1731.17,7516
1730.21,7780
1729.24,8028
1728.28,8260
1727.31,8456
1726.35,8591
1725.38,8652
1724.42,8655
1723.46,8625
1722.49,8564
1721.53,8426
1720.56,8219
1719.60,7950
1718.63,7601
1717.67,7179
1716.71,6700
1715.74,6173
1714.78,5602
1713.81,5006
1712.85,4423
1711.89,3863
1710.92,3330
1709.96,2839
1708.99,2395
1708.03,2030
1707.06,1724
1706.10,1463
1705.14,1253
1704.17,1093
1703.21,978
1702.24,871
1701.28,772
1700.31,694
1699.35,637
1698.39,591
1697.42,546
1696.46,500
1695.49,458
1694.53,433
1693.56,426
1692.60,420
1691.64,416
1690.67,418
1689.71,418
1688.74,408
1687.78,398
1686.81,390
1685.85,381
1684.89,367
1683.92,348
1682.96,327
1681.99,307
1681.03,296
1680.07,297
1679.10,308
1678.14,317
1677.17,312
1676.21,295
1675.24,278
1674.28,266
1673.32,268
1672.35,268
1671.39,254
1670.42,227
1669.46,191
1668.49,161
1667.53,157
1666.57,180
1665.60,209
1664.64,220
1663.67,202
1662.71,167
1661.74,144
1660.78,147
1659.82,164
1658.85,184
1657.89,204
1656.92,213
1655.96,207
1655.00,195
1654.03,195
1653.07,210
1652.10,231
1651.14,241
1650.17,243
1649.21,252
1648.25,272
1647.28,291
1646.32,307
1645.35,322
1644.39,330
1643.42,333
1642.46,337
1641.50,341
1640.53,354
1639.57,381
1638.60,417
1637.64,452
1636.67,486
1635.71,522
1634.75,565
1633.78,614
1632.82,671
1631.85,742
1630.89,824
1629.93,912
1628.96,1034
1628.00,1182
1627.03,1370
1626.07,1605
1625.10,1951
1624.14,2414
1623.18,3070
1622.21,3975
1621.25,5192
1620.28,6814
1619.32,8849
1618.35,11137
1617.39,13537
1616.43,15885
1615.46,17564
1614.50,18795
1613.53,18821
1612.57,17942
1611.60,16556
1610.64,14621
1609.68,12634
1608.71,10740
1607.75,9010
1606.78,7546
1605.82,6340
1604.86,5337
1603.89,4517
1602.93,3844
1601.96,3262
1601.00,2777
1600.03,2324
1599.07,1952
1598.11,1638
1597.14,1391
1596.18,1203
1595.21,1066
1594.25,944
1593.28,823
1592.32,707
1591.36,612
1590.39,545
1589.43,499
1588.46,458
1587.50,423
1586.53,399
1585.57,383
1584.61,368
1583.64,355
1582.68,345
1581.71,340
1580.75,341
1579.79,355
1578.82,376
1577.86,388
1576.89,378
1575.93,343
1574.96,285
1574.00,224
1573.04,188
1572.07,171
1571.11,154
1570.14,143
1569.18,133
1568.21,114
1567.25,94
1566.29,80
1565.32,67
1564.36,53
1563.39,46
1562.43,49
1561.46,55
1560.50,53
1559.54,48
1558.57,45
1557.61,39
1556.64,34
1555.68,39
1554.72,47
1553.75,50
1552.79,49
1551.82,47
1550.86,44
1549.89,45
1548.93,48
1547.97,49
1547.00,47
1546.04,40
1545.07,23
1544.11,-1
1543.14,-13
1542.18,-6
1541.22,4
1540.25,-3
1539.29,-22
1538.32,-38
1537.36,-44
1536.39,-38
1535.43,-26
1534.47,-15
1533.50,-0
1532.54,20
1531.57,37
1530.61,43
1529.64,35
1528.68,19
1527.72,5
1526.75,6
1525.79,22
1524.82,38
1523.86,34
1522.90,12
1521.93,-17
1520.97,-47
1520.00,-45
1519.04,-17
1518.07,8
1517.11,19
1516.15,21
1515.18,17
1514.22,11
1513.25,8
1512.29,13
1511.32,20
1510.36,15
1509.40,2
1508.43,4
1507.47,30
1506.50,50
1505.54,61
1504.57,63
1503.61,57
1502.65,46
1501.68,38
1500.72,33
1499.75,25
1498.79,11
1497.83,-4
1496.86,-2
1495.90,23
1494.93,44
1493.97,41
1493.00,19
1492.04,-2
1491.08,-11
1490.11,-5
1489.15,10
1488.18,22
1487.22,24
1486.25,25
1485.29,36
1484.33,53
1483.36,67
1482.40,78
1481.43,90
1480.47,108
1479.50,135
1478.54,167
1477.58,197
1476.61,220
1475.65,245
1474.68,279
1473.72,316
1472.76,345
1471.79,371
1470.83,391
1469.86,414
1468.90,455
1467.93,508
1466.97,558
1466.01,597
1465.04,624
1464.08,642
1463.11,654
1462.15,668
1461.18,685
1460.22,691
1459.26,703
1458.29,734
1457.33,775
1456.36,818
1455.40,843
1454.43,841
1453.47,821
1452.51,802
1451.54,800
1450.58,811
1449.61,826
1448.65,838
1447.69,837
1446.72,820
1445.76,816
1444.79,838
1443.83,865
1442.86,887
1441.90,904
1440.94,910
1439.97,881
1439.01,799
1438.04,688
1437.08,592
1436.11,516
1435.15,452
1434.19,403
1433.22,360
1432.26,314
1431.29,262
1430.33,211
1429.36,172
1428.40,155
1427.44,151
1426.47,160
1425.51,172
1424.54,168
1423.58,156
1422.62,153
1421.65,169
1420.69,200
1419.72,240
1418.76,282
1417.79,325
1416.83,374
1415.87,444
1414.90,534
1413.94,639
1412.97,762
1412.01,850
1411.04,899
1410.08,908
1409.12,876
1408.15,808
1407.19,717
1406.22,619
1405.26,546
1404.29,495
1403.33,450
1402.37,421
1401.40,403
1400.44,387
1399.47,381
1398.51,389
1397.55,400
1396.58,402
1395.62,404
1394.65,417
1393.69,430
1392.72,448
1391.76,461
1390.80,457
1389.83,442
1388.87,430
1387.90,425
1386.94,419
1385.97,402
1385.01,375
1384.05,353
1383.08,351
1382.12,382
1381.15,421
1380.19,440
1379.22,441
1378.26,445
1377.30,466
1376.33,502
1375.37,540
1374.40,576
1373.44,607
1372.47,633
1371.51,663
1370.55,700
1369.58,720
1368.62,698
1367.65,650
1366.69,606
1365.73,571
1364.76,526
1363.80,465
1362.83,396
1361.87,363
1360.90,360
1359.94,364
1358.98,363
1358.01,353
1357.05,347
1356.08,349
1355.12,349
1354.15,338
1353.19,331
1352.23,341
1351.26,341
1350.30,310
1349.33,270
1348.37,242
1347.40,226
1346.44,218
1345.48,215
1344.51,213
1343.55,210
1342.58,210
1341.62,213
1340.66,221
1339.69,233
1338.73,247
1337.76,254
1336.80,250
1335.83,238
1334.87,231
1333.91,238
1332.94,251
1331.98,267
1331.01,288
1330.05,314
1329.08,342
1328.12,371
1327.16,400
1326.19,430
1325.23,466
1324.26,510
1323.30,558
1322.33,608
1321.37,658
1320.41,708
1319.44,752
1318.48,792
1317.51,834
1316.55,885
1315.59,955
1314.62,1044
1313.66,1154
1312.69,1269
1311.73,1375
1310.76,1478
1309.80,1581
1308.84,1689
1307.87,1788
1306.91,1854
1305.94,1887
1304.98,1911
1304.01,1935
1303.05,1945
1302.09,1975
1301.12,2020
1300.16,2112
1299.19,2254
1298.23,2428
1297.26,2623
1296.30,2831
1295.34,3051
1294.37,3285
1293.41,3505
1292.44,3690
1291.48,3854
1290.52,4014
1289.55,4168
1288.59,4303
1287.62,4419
1286.66,4522
1285.69,4600
1284.73,4629
1283.77,4595
1282.80,4522
1281.84,4434
1280.87,4346
1279.91,4266
1278.94,4178
1277.98,4064
1277.02,3916
1276.05,3739
1275.09,3558
1274.12,3394
1273.16,3240
1272.19,3083
1271.23,2928
1270.27,2785
1269.30,2652
1268.34,2518
1267.37,2386
1266.41,2262
1265.45,2136
1264.48,2018
1263.52,1922
1262.55,1825
1261.59,1716
1260.62,1598
1259.66,1485
1258.70,1389
1257.73,1312
1256.77,1249
1255.80,1190
1254.84,1126
1253.87,1053
1252.91,979
1251.95,904
1250.98,836
1250.02,777
1249.05,726
1248.09,682
1247.12,643
1246.16,602
1245.20,561
1244.23,522
1243.27,487
1242.30,457
1241.34,427
1240.38,387
1239.41,338
1238.45,291
1237.48,262
1236.52,248
1235.55,233
1234.59,209
1233.63,179
1232.66,145
1231.70,114
1230.73,89
1229.77,73
1228.80,58
1227.84,45
1226.88,40
1225.91,42
1224.95,48
1223.98,55
1223.02,60
1222.05,63
1221.09,65
1220.13,71
1219.16,77
1218.20,71
1217.23,47
1216.27,17
1215.30,-0
1214.34,-0
1213.38,4
1212.41,-0
1211.45,-15
1210.48,-29
1209.52,-25
1208.56,-8
1207.59,7
1206.63,15
1205.66,22
1204.70,33
1203.73,50
1202.77,67
1201.81,82
1200.84,101
1199.88,117
1198.91,117
1197.95,112
1196.98,117
1196.02,135
1195.06,158
1194.09,175
1193.13,186
1192.16,190
1191.20,188
1190.23,191
1189.27,209
1188.31,236
1187.34,270
1186.38,313
1185.41,370
1184.45,452
1183.49,553
1182.52,655
1181.56,760
1180.59,872
1179.63,997
1178.66,1124
1177.70,1232
1176.74,1307
1175.77,1352
1174.81,1371
1173.84,1362
1172.88,1317
1171.91,1243
1170.95,1138
1169.99,1000
1169.02,846
1168.06,718
1167.09,600
1166.13,505
1165.16,426
1164.20,362
1163.24,312
1162.27,269
1161.31,232
1160.34,200
1159.38,181
1158.42,177
1157.45,181
1156.49,181
1155.52,184
1154.56,184
1153.59,174
1152.63,158
1151.67,143
1150.70,130
1149.74,116
1148.77,111
1147.81,114
1146.84,121
1145.88,133
1144.92,150
1143.95,168
1142.99,184
1142.02,196
1141.06,215
1140.09,245
1139.13,275
1138.17,292
1137.20,303
1136.24,327
1135.27,379
1134.31,448
1133.35,510
1132.38,562
1131.42,621
1130.45,692
1129.49,776
1128.52,867
1127.56,957
1126.60,1040
1125.63,1118
1124.67,1207
1123.70,1323
1122.74,1448
1121.77,1561
1120.81,1658
1119.85,1737
1118.88,1795
1117.92,1836
1116.95,1857
1115.99,1851
1115.02,1835
1114.06,1810
1113.10,1775
1112.13,1726
1111.17,1665
1110.20,1603
1109.24,1556
1108.28,1524
1107.31,1502
1106.35,1482
1105.38,1453
1104.42,1412
1103.45,1361
1102.49,1309
1101.53,1267
1100.56,1226
1099.60,1191
1098.63,1159
1097.67,1119
1096.70,1065
1095.74,995
1094.78,913
1093.81,821
1092.85,728
1091.88,652
1090.92,595
1089.95,545
1088.99,497
1088.03,453
1087.06,414
1086.10,381
1085.13,354
1084.17,318
1083.21,280
1082.24,254
1081.28,240
1080.31,229
1079.35,212
1078.38,189
1077.42,167
1076.46,152
1075.49,142
1074.53,135
1073.56,128
1072.60,124
1071.63,125
1070.67,127
1069.71,121
1068.74,118
1067.78,129
1066.81,147
1065.85,165
1064.88,175
1063.92,173
1062.96,161
1061.99,142
1061.03,119
1060.06,98
1059.10,87
1058.13,88
1057.17,98
1056.21,107
1055.24,106
1054.28,96
1053.31,100
1052.35,123
1051.39,140
1050.42,151
1049.46,158
1048.49,167
1047.53,177
1046.56,188
1045.60,202
1044.64,215
1043.67,220
1042.71,217
1041.74,205
1040.78,190
1039.81,181
1038.85,186
1037.89,192
1036.92,195
1035.96,198
1034.99,201
1034.03,201
1033.06,199
1032.10,197
1031.14,204
1030.17,218
1029.21,236
1028.24,255
1027.28,271
1026.32,281
1025.35,281
1024.39,275
1023.42,269
1022.46,261
1021.49,253
1020.53,259
1019.57,270
1018.60,269
1017.64,251
1016.67,226
1015.71,204
1014.74,183
1013.78,164
1012.82,143
1011.85,118
1010.89,93
1009.92,71
1008.96,60
1007.99,60
1007.03,66
1006.07,67
1005.10,64
1004.14,53
1003.17,39
1002.21,27
1001.25,28
1000.28,31
999.32,24
998.35,13
997.39,4
996.42,1
995.46,5
994.50,10
993.53,11
992.57,4
991.60,-0
990.64,0
989.67,4
988.71,9
987.75,14
986.78,20
985.82,27
984.85,31
983.89,34
982.92,32
981.96,25
981.00,18
980.03,15
979.07,15
978.10,17
977.14,21
976.18,25
975.21,28
974.25,29
973.28,30
972.32,31
971.35,37
970.39,54
969.43,76
968.46,93
967.50,96
966.53,87
965.57,72
964.60,65
963.64,65
962.68,70
961.71,81
960.75,90
959.78,93
958.82,90
957.85,86
956.89,83
955.93,70
954.96,57
954.00,55
953.03,65
952.07,77
951.11,84
950.14,91
949.18,102
948.21,110
947.25,114
946.28,114
945.32,110
944.36,97
943.39,76
942.43,62
941.46,71
940.50,93
939.53,113
938.57,131
937.61,150
936.64,171
935.68,191
934.71,210
933.75,236
932.78,264
931.82,290
930.86,312
929.89,326
928.93,333
927.96,331
927.00,324
926.04,317
925.07,312
924.11,310
923.14,310
922.18,312
921.21,313
920.25,313
919.29,308
918.32,293
917.36,269
916.39,248
915.43,243
914.46,252
913.50,262
912.54,268
911.57,278
910.61,298
909.64,323
908.68,345
907.71,359
906.75,379
905.79,409
904.82,440
903.86,470
902.89,502
901.93,541
900.96,582
900.00,611
899.04,635
898.07,654
897.11,675
896.14,705
895.18,748
894.22,800
893.25,858
892.29,916
891.32,974
890.36,1034
889.39,1098
888.43,1162
887.47,1216
886.50,1247
885.54,1270
884.57,1287
883.61,1299
882.64,1311
881.68,1321
880.72,1324
879.75,1327
878.79,1341
877.82,1375
876.86,1431
875.89,1508
874.93,1607
873.97,1718
873.00,1822
872.04,1917
871.07,2019
870.11,2125
869.15,2224
868.18,2308
867.22,2374
866.25,2430
865.29,2478
864.32,2532
863.36,2604
862.40,2684
861.43,2753
860.47,2798
859.50,2822
858.54,2823
857.57,2814
856.61,2789
855.65,2744
854.68,2678
853.72,2600
852.75,2515
851.79,2410
850.82,2297
849.86,2182
848.90,2065
847.93,1946
846.97,1823
846.00,1718
845.04,1616
844.08,1522
843.11,1442
842.15,1378
841.18,1330
840.22,1294
839.25,1260
838.29,1225
837.33,1185
836.36,1130
835.40,1069
834.43,1028
833.47,1048
832.50,1091
831.54,1092
830.58,1088
829.61,1092
828.65,1104
827.68,1107
826.72,1087
825.75,1053
824.79,1028
823.83,1012
822.86,1002
821.90,994
820.93,983
819.97,963
819.01,936
818.04,909
817.08,887
816.11,870
815.15,861
814.18,861
813.22,866
812.26,867
811.29,863
810.33,851
809.36,834
808.40,816
807.43,802
806.47,793
805.51,783
804.54,769
803.58,756
802.61,749
801.65,754
800.68,780
799.72,847
798.76,928
797.79,1011
796.83,1090
795.86,1144
794.90,1148
793.94,1129
792.97,1060
792.01,944
791.04,828
790.08,723
789.11,624
788.15,537
787.19,472
786.22,425
785.26,391
784.29,371
783.33,364
782.36,373
781.40,396
780.44,424
779.47,447
778.51,471
777.54,501
776.58,538
775.61,569
774.65,595
773.69,587
772.72,553
771.76,507
770.79,458
769.83,410
768.87,363
767.90,309
766.94,257
765.97,219
765.01,192
764.04,170
763.08,149
762.12,126
761.15,96
760.19,72
759.22,57
758.26,46
757.29,34
756.33,22
755.37,11
754.40,3
753.44,1
752.47,0
751.51,-1
750.54,-5
749.58,-6
748.62,0
747.65,12
746.69,23
745.72,29
744.76,29
743.79,23
742.83,13
741.87,7
740.90,11
739.94,24
738.97,44
738.01,64
737.05,80
736.08,93
735.12,104
734.15,113
733.19,121
732.22,125
731.26,123
730.30,114
729.33,107
728.37,104
727.40,102
726.44,92
725.47,74
724.51,60
723.55,49
722.58,39
721.62,32
720.65,30
719.69,32
718.72,37
717.76,53
716.80,82
715.83,125
714.87,182
713.90,250
712.94,323
711.98,405
711.01,499
710.05,601
709.08,710
708.12,817
707.15,910
706.19,983
705.23,1003
704.26,988
703.30,938
702.33,854
701.37,740
700.40,614
699.44,464
698.48,334
697.51,233
696.55,158
695.58,106
694.62,76
693.65,61
692.69,52
691.73,48
690.76,44
689.80,37
688.83,26
687.87,29
686.91,107
685.94,51
684.98,-187
684.01,-395
683.05,-274
682.08,81
681.12,176
680.16,127
679.19,72
678.23,63
677.26,78
676.30,72
675.33,63
674.37,52
673.41,40
672.44,32
671.48,28
670.51,25
669.55,16
668.58,8
667.62,3
666.66,1
665.69,3
664.73,8
663.76,18
662.80,26
661.84,33
660.87,41
659.91,50
658.94,58
657.98,60
657.01,57
656.05,55
655.09,55
654.12,55
653.16,52
652.19,49
651.23,52
650.26,55
649.30,55
648.34,54
647.37,58
646.41,67
645.44,84
644.48,106
643.51,133
642.55,163
641.59,200
640.62,246
639.66,357
638.69,580
637.73,918
636.77,1397
635.80,2025
634.84,2732
633.87,3132
632.91,3398
631.94,3357
630.98,2994
630.02,2420
629.05,1834
628.09,1155
627.12,691
626.16,443
625.19,323
624.23,237
623.27,151
622.30,96
621.34,54
620.37,29
619.41,15
618.44,6
617.48,5
616.52,4
615.55,7
614.59,5
613.62,-2
612.66,-12
611.70,-14
610.73,-7
609.77,-5
608.80,-8
607.84,-12
606.87,-14
605.91,-14
604.95,-10
603.98,-3
603.02,3
602.05,4
601.09,-0
600.12,-6
599.16,-9
598.20,-12
597.23,-17
596.27,-23
595.30,-31
594.34,-40
593.37,-47
592.41,-44
591.45,-34
590.48,-24
589.52,-19
588.55,-22
587.59,-28
586.62,-34
585.66,-38
584.70,-40
583.73,-39
582.77,-32
581.80,-19
580.84,-7
579.88,0
578.91,3
577.95,6
576.98,7
576.02,12
575.05,23
574.09,34
573.13,42
572.16,45
571.20,45
570.23,39
569.27,27
568.30,16
567.34,13
566.38,22
565.41,37
564.45,53
563.48,66
562.52,72
561.55,68
560.59,56
559.63,51
558.66,54
557.70,59
556.73,68
555.77,79
554.81,90
553.84,92
552.88,90
551.91,87
550.95,85
549.98,85
549.02,90
548.06,93
547.09,91
546.13,84
545.16,76
544.20,68
543.23,66
542.27,64
541.31,62
540.34,60
539.38,56
538.41,49
537.45,38
536.48,30
535.52,25
534.56,22
533.59,22
532.63,26
531.66,35
530.70,40
529.74,39
528.77,36
527.81,33
526.84,34
525.88,35
524.91,32
523.95,27
522.99,21
522.02,15
521.06,13
520.09,14
519.13,15
518.16,15
517.20,14
516.24,12
515.27,6
514.31,1
513.34,2
512.38,8
511.41,16
510.45,17
509.49,11
508.52,7
507.56,7
506.59,12
505.63,19
504.67,22
503.70,16
502.74,12
501.77,11
500.81,11
499.84,12
498.88,13
497.92,9
496.95,4
495.99,-2
495.02,-7
494.06,-10
493.09,-12
492.13,-9
491.17,-5
490.20,-2
489.24,-0
488.27,5
487.31,17
486.34,30
485.38,41
484.42,48
483.45,52
482.49,51
481.52,52
480.56,50
479.60,43
478.63,32
477.67,25
476.70,27
475.74,27
474.77,25
473.81,22
472.85,22
471.88,25
470.92,31
469.95,32
468.99,30
468.02,27
467.06,29
466.10,32
465.13,35
464.17,39
463.20,45
462.24,51
461.27,57
460.31,58
459.35,56
458.38,54
457.42,54
456.45,58
455.49,63
454.53,65
453.56,62
452.60,56
451.63,50
450.67,47
449.70,45
448.74,46
447.78,48
446.81,49
445.85,47
444.88,43
443.92,40
442.95,38
441.99,39
441.03,41
440.06,42
439.10,44
438.13,43
437.17,41
436.20,37
435.24,35
434.28,36
433.31,34
432.35,29
431.38,25
430.42,25
429.45,30
428.49,37
427.53,41
426.56,39
425.60,32
424.63,22
423.67,15
422.71,13
421.74,15
420.78,20
419.81,23
418.85,24
417.88,27
416.92,35
415.96,48
414.99,61
414.03,71
413.06,80
412.10,91
411.13,104
410.17,117
409.21,126
408.24,130
407.28,132
406.31,133
405.35,129
404.38,116
403.42,96
402.46,75
401.49,52
400.53,29
399.56,10
398.60,-1
397.64,-12
396.67,-25
395.71,-34
394.74,-36
393.78,-32
392.81,-26
391.85,-18
390.89,-14
389.92,-16
388.96,-26
387.99,-34
387.03,-29
386.06,-18
385.10,-7
384.14,-1
383.17,-2
382.21,-5
381.24,-8
380.28,-10
379.31,-14
378.35,-18
377.39,-22
376.42,-21
375.46,-16
374.49,-9
373.53,-3
372.57,0
371.60,-2
370.64,-5
369.67,-7
368.71,-8
367.74,-10
366.78,-8
365.82,-4
364.85,-0
363.89,1
362.92,-0
361.96,-3
360.99,-7
360.03,-13
359.07,-19
358.10,-23
357.14,-20
356.17,-10
355.21,1
354.24,11
353.28,16
352.32,12
351.35,-3
350.39,-18
349.42,-29
348.46,-35
347.50,-36
346.53,-28
345.57,-17
344.60,-11
343.64,-11
342.67,-19
341.71,-27
340.75,-31
339.78,-33
338.82,-33
337.85,-33
336.89,-31
335.92,-32
334.96,-34
334.00,-37
333.03,-42
332.07,-47
331.10,-52
330.14,-55
329.17,-56
328.21,-53
327.25,-46
326.28,-40
325.32,-38
324.35,-40
323.39,-43
322.43,-46
321.46,-45
320.50,-42
319.53,-39
318.57,-38
317.60,-38
316.64,-36
315.68,-34
314.71,-31
313.75,-26
312.78,-17
311.82,-6
310.85,1
309.89,3
308.93,3
307.96,2
307.00,0
306.03,-2
305.07,2
304.10,12
303.14,29
302.18,46
301.21,59
300.25,72
299.28,85
298.32,96
297.36,103
296.39,116
295.43,138
294.46,165
293.50,191
292.53,214
291.57,235
290.61,254
289.64,274
288.68,297
287.71,327
286.75,366
285.78,408
284.82,450
283.86,491
282.89,532
281.93,572
280.96,611
280.00,647
279.03,677
278.07,702
277.11,715
276.14,724
275.18,733
274.21,742
273.25,751
272.28,755
271.32,754
270.36,748
269.39,737
268.43,722
267.46,700
266.50,671
265.54,639
264.57,607
263.61,576
262.64,544
261.68,512
260.71,483
259.75,459
258.79,438
257.82,418
256.86,389
255.89,357
254.93,326
253.96,297
253.00,271
252.04,254
251.07,239
250.11,225
249.14,212
248.18,200
247.21,187
246.25,172
245.29,156
244.32,141
243.36,129
242.39,119
241.43,109
240.47,101
239.50,97
238.54,100
237.57,105
236.61,105
235.64,102
234.68,99
233.72,101
232.75,103
231.79,114
230.82,136
229.86,164
228.89,187
227.93,205
226.97,216
226.00,218
225.04,207
224.07,187
223.11,159
222.14,127
221.18,97
220.22,73
219.25,53
218.29,43
217.32,41
216.36,42
215.40,41
214.43,36
213.47,23
212.50,11
211.54,3
210.57,1
209.61,1
208.65,1
207.68,-2
206.72,-10
205.75,-23
204.79,-35
203.82,-37
202.86,-33
201.90,-25
200.93,-19
199.97,-16
199.00,-14
198.04,-14
197.07,-14
196.11,-12
195.15,-7
194.18,-1
193.22,2
192.25,0
191.29,-0
190.33,-1
189.36,-5
188.40,-9
187.43,-11
186.47,-9
185.50,-2
184.54,6
183.58,11
182.61,12
181.65,8
180.68,0
179.72,-5
178.75,-6
177.79,-2
176.83,8
175.86,21
174.90,29
173.93,32
172.97,32
172.00,34
171.04,36
170.08,33
169.11,24
168.15,13
167.18,-1
166.22,1
165.26,9
164.29,19
163.33,29
162.36,37
161.40,43
160.43,47
159.47,54
158.51,66
157.54,81
156.58,91
155.61,99
154.65,106
153.68,112
152.72,120
151.76,130
150.79,142
149.83,157
148.86,178
147.90,207
146.93,238
145.97,268
145.01,297
144.04,327
143.08,365
142.11,410
141.15,459
140.19,509
139.22,564
138.26,629
137.29,701
136.33,774
135.36,844
134.40,905
133.44,968
132.47,1040
131.51,1123
130.54,1216
129.58,1320
128.61,1434
127.65,1553
126.69,1672
125.72,1785
124.76,1888
123.79,1996
122.83,2114
121.86,2245
120.90,2392
119.94,2548
118.97,2707
118.01,2868
117.04,3029
116.08,3187
115.11,3339
114.15,3494
113.19,3657
112.22,3831
111.26,4020
110.29,4221
109.33,4433
108.37,4653
107.40,4873
106.44,5084
105.47,5290
104.51,5498
103.54,5711
102.58,5930
101.62,6156
100.65,6388
99.69,6626
98.72,6870
97.76,7115
96.79,7355
95.83,7601
94.87,7853
93.90,8113
92.94,8384
91.97,8663
91.01,8948
90.04,9237
89.08,9528
88.12,9814
87.15,10091
86.19,10360
85.22,10625
84.26,10896
83.30,11175
82.33,11462
81.37,11750
80.40,12031
79.44,12304
78.47,12593
77.51,12897
76.55,13209
