Created As Omnic File,PLAS 140
Raman Shift / cm-1,INT
3418.58,38
3417.61,46
3416.65,48
3415.68,49
3414.72,55
3413.76,64
3412.79,62
3411.83,46
3410.86,17
3409.90,0
3408.94,32
3407.97,52
3407.01,46
3406.04,37
3405.08,34
3404.11,44
3403.15,60
3402.19,65
3401.22,54
3400.26,40
3399.29,36
3398.33,33
3397.36,30
3396.40,28
3395.44,28
3394.47,33
3393.51,40
3392.54,50
3391.58,60
3390.61,68
3389.65,65
3388.69,43
3387.72,28
3386.76,26
3385.79,34
3384.83,41
3383.87,34
3382.90,27
3381.94,29
3380.97,29
3380.01,18
3379.04,-1
3378.08,-10
3377.12,3
3376.15,29
3375.19,49
3374.22,57
3373.26,53
3372.29,36
3371.33,14
3370.37,-1
3369.40,-2
3368.44,2
3367.47,1
3366.51,-6
3365.54,-18
3364.58,-22
3363.62,-22
3362.65,-5
3361.69,8
3360.72,4
3359.76,-8
3358.80,0
3357.83,14
3356.87,22
3355.90,25
3354.94,23
3353.97,11
3353.01,-11
3352.05,-19
3351.08,-6
3350.12,18
3349.15,39
3348.19,46
3347.22,45
3346.26,57
3345.30,73
3344.33,70
3343.37,50
3342.40,33
3341.44,32
3340.47,49
3339.51,66
3338.55,66
3337.58,57
3336.62,48
3335.65,30
3334.69,5
3333.73,15
3332.76,41
3331.80,32
3330.83,14
3329.87,3
3328.90,-17
3327.94,-44
3326.98,-46
3326.01,-24
3325.05,-1
3324.08,2
3323.12,-12
3322.15,-25
3321.19,-20
3320.23,-4
3319.26,7
3318.30,13
3317.33,11
3316.37,-0
3315.40,-16
3314.44,-23
3313.48,-14
3312.51,-8
3311.55,-14
3310.58,-16
3309.62,4
3308.66,20
3307.69,13
3306.73,2
3305.76,-5
3304.80,-12
3303.83,-17
3302.87,-13
3301.91,-4
3300.94,-3
3299.98,2
3299.01,11
3298.05,18
3297.08,20
3296.12,13
3295.16,12
3294.19,27
3293.23,39
3292.26,48
3291.30,46
3290.33,20
3289.37,-6
3288.41,-4
3287.44,7
3286.48,4
3285.51,-4
3284.55,3
3283.59,18
3282.62,23
3281.66,21
3280.69,29
3279.73,35
3278.76,24
3277.80,9
3276.84,2
3275.87,-5
3274.91,-7
3273.94,-2
3272.98,0
3272.01,2
3271.05,10
3270.09,17
3269.12,12
3268.16,11
3267.19,9
3266.23,5
3265.26,7
3264.30,-1
3263.34,-8
3262.37,3
3261.41,23
3260.44,42
3259.48,50
3258.51,36
3257.55,27
3256.59,33
3255.62,34
3254.66,36
3253.69,33
3252.73,27
3251.77,20
3250.80,11
3249.84,7
3248.87,9
3247.91,15
3246.94,28
3245.98,44
3245.02,51
3244.05,48
3243.09,49
3242.12,57
3241.16,58
3240.19,52
3239.23,67
3238.27,102
3237.30,137
3236.34,157
3235.37,158
3234.41,151
3233.44,166
3232.48,194
3231.52,221
3230.55,243
3229.59,256
3228.62,259
3227.66,254
3226.70,247
3225.73,241
3224.77,247
3223.80,266
3222.84,266
3221.87,240
3220.91,217
3219.95,207
3218.98,204
3218.02,198
3217.05,183
3216.09,166
3215.12,158
3214.16,155
3213.20,140
3212.23,116
3211.27,98
3210.30,81
3209.34,68
3208.37,61
3207.41,50
3206.45,43
3205.48,50
3204.52,52
3203.55,37
3202.59,27
3201.63,25
3200.66,31
3199.70,40
3198.73,36
3197.77,23
3196.80,9
3195.84,1
3194.88,1
3193.91,2
3192.95,6
3191.98,10
3191.02,4
3190.05,-4
3189.09,-12
3188.13,-14
3187.16,-2
3186.20,15
3185.23,25
3184.27,24
3183.30,20
3182.34,15
3181.38,7
3180.41,3
3179.45,-2
3178.48,3
3177.52,28
3176.56,36
3175.59,17
3174.63,2
3173.66,-3
3172.70,-8
3171.73,0
3170.77,26
3169.81,46
3168.84,58
3167.88,58
3166.91,42
3165.95,28
3164.98,15
3164.02,5
3163.06,10
3162.09,29
3161.13,45
3160.16,54
3159.20,53
3158.23,35
3157.27,25
3156.31,39
3155.34,69
3154.38,93
3153.41,90
3152.45,59
3151.49,32
3150.52,22
3149.56,20
3148.59,15
3147.63,11
3146.66,23
3145.70,49
3144.74,38
3143.77,11
3142.81,7
3141.84,15
3140.88,26
3139.91,25
3138.95,3
3137.99,-14
3137.02,2
3136.06,12
3135.09,-3
3134.13,-10
3133.16,9
3132.20,22
3131.24,9
3130.27,0
3129.31,9
3128.34,19
3127.38,22
3126.42,16
3125.45,16
3124.49,34
3123.52,51
3122.56,53
3121.59,37
3120.63,24
3119.67,31
3118.70,54
3117.74,74
3116.77,84
3115.81,88
3114.84,95
3113.88,109
3112.92,141
3111.95,185
3110.99,228
3110.02,261
3109.06,276
3108.09,287
3107.13,298
3106.17,308
3105.20,333
3104.24,372
3103.27,416
3102.31,476
3101.34,543
3100.38,599
3099.42,653
3098.45,715
3097.49,787
3096.52,884
3095.56,1000
3094.60,1133
3093.63,1284
3092.67,1477
3091.70,1721
3090.74,2017
3089.77,2376
3088.81,2840
3087.85,3380
3086.88,4005
3085.92,4706
3084.95,5481
3083.99,6207
3083.02,6748
3082.06,7005
3081.10,6817
3080.13,6346
3079.17,5695
3078.20,4989
3077.24,4377
3076.27,3888
3075.31,3548
3074.35,3290
3073.38,3097
3072.42,2912
3071.45,2740
3070.49,2562
3069.53,2356
3068.56,2146
3067.60,1938
3066.63,1738
3065.67,1550
3064.70,1375
3063.74,1203
3062.78,1038
3061.81,883
3060.85,741
3059.88,629
3058.92,562
3057.95,525
3056.99,478
3056.03,418
3055.06,365
3054.10,331
3053.13,309
3052.17,293
3051.20,271
3050.24,238
3049.28,207
3048.31,183
3047.35,163
3046.38,156
3045.42,152
3044.46,133
3043.49,107
3042.53,91
3041.56,100
3040.60,125
3039.63,147
3038.67,160
3037.71,169
3036.74,180
3035.78,187
3034.81,178
3033.85,162
3032.88,175
3031.92,223
3030.96,251
3029.99,239
3029.03,241
3028.06,261
3027.10,290
3026.13,321
3025.17,337
3024.21,336
3023.24,336
3022.28,345
3021.31,364
3020.35,377
3019.39,403
3018.42,461
3017.46,524
3016.49,581
3015.53,629
3014.56,667
3013.60,705
3012.64,759
3011.67,834
3010.71,907
3009.74,959
3008.78,1015
3007.81,1098
3006.85,1179
3005.89,1239
3004.92,1302
3003.96,1366
3002.99,1417
3002.03,1458
3001.06,1489
3000.10,1504
2999.14,1502
2998.17,1476
2997.21,1425
2996.24,1355
2995.28,1300
2994.32,1262
2993.35,1237
2992.39,1207
2991.42,1178
2990.46,1172
2989.49,1184
2988.53,1198
2987.57,1201
2986.60,1185
2985.64,1180
2984.67,1204
2983.71,1228
2982.74,1262
2981.78,1324
2980.82,1395
2979.85,1453
2978.89,1507
2977.92,1569
2976.96,1646
2975.99,1745
2975.03,1858
2974.07,1942
2973.10,2017
2972.14,2116
2971.17,2215
2970.21,2312
2969.25,2418
2968.28,2522
2967.32,2618
2966.35,2693
2965.39,2731
2964.42,2738
2963.46,2723
2962.50,2685
2961.53,2633
2960.57,2562
2959.60,2469
2958.64,2362
2957.67,2266
2956.71,2193
2955.75,2129
2954.78,2053
2953.82,1963
2952.85,1876
2951.89,1819
2950.92,1795
2949.96,1773
2949.00,1737
2948.03,1695
2947.07,1653
2946.10,1614
2945.14,1575
2944.17,1541
2943.21,1525
2942.25,1526
2941.28,1527
2940.32,1519
2939.35,1505
2938.39,1501
2937.43,1509
2936.46,1506
2935.50,1490
2934.53,1481
2933.57,1484
2932.60,1491
2931.64,1491
2930.68,1487
2929.71,1487
2928.75,1481
2927.78,1477
2926.82,1489
2925.85,1496
2924.89,1481
2923.93,1463
2922.96,1446
2922.00,1439
2921.03,1444
2920.07,1449
2919.10,1444
2918.14,1443
2917.18,1462
2916.21,1477
2915.25,1454
2914.28,1417
2913.32,1421
2912.36,1453
2911.39,1479
2910.43,1497
2909.46,1512
2908.50,1527
2907.53,1533
2906.57,1518
2905.61,1485
2904.64,1435
2903.68,1376
2902.71,1338
2901.75,1345
2900.78,1335
2899.82,1272
2898.86,1208
2897.89,1182
2896.93,1171
2895.96,1137
2895.00,1084
2894.03,1042
2893.07,1017
2892.11,1001
2891.14,993
2890.18,969
2889.21,930
2888.25,897
2887.29,876
2886.32,879
2885.36,899
2884.39,903
2883.43,872
2882.46,826
2881.50,796
2880.54,786
2879.57,803
2878.61,837
2877.64,833
2876.68,797
2875.71,773
2874.75,769
2873.79,769
2872.82,752
2871.86,727
2870.89,712
2869.93,690
2868.96,656
2868.00,641
2867.04,652
2866.07,662
2865.11,651
2864.14,635
2863.18,631
2862.22,620
2861.25,589
2860.29,551
2859.32,522
2858.36,512
2857.39,513
2856.43,504
2855.47,485
2854.50,468
2853.54,437
2852.57,391
2851.61,336
2850.64,288
2849.68,265
2848.72,247
2847.75,209
2846.79,174
2845.82,162
2844.86,156
2843.89,141
2842.93,129
2841.97,129
2841.00,118
2840.04,90
2839.07,71
2838.11,64
2837.15,48
2836.18,27
2835.22,8
2834.25,-15
2833.29,-34
2832.32,-29
2831.36,-12
2830.40,0
2829.43,-1
2828.47,-17
2827.50,-20
2826.54,1
2825.57,10
2824.61,-9
2823.65,-21
2822.68,-2
2821.72,39
2820.75,76
2819.79,99
2818.82,108
2817.86,92
2816.90,62
2815.93,46
2814.97,55
2814.00,80
2813.04,95
2812.08,81
2811.11,59
2810.15,49
2809.18,48
2808.22,56
2807.25,62
2806.29,51
2805.33,35
2804.36,30
2803.40,33
2802.43,39
2801.47,46
2800.50,46
2799.54,36
2798.58,32
2797.61,41
2796.65,46
2795.68,45
2794.72,47
2793.75,48
2792.79,58
2791.83,80
2790.86,90
2789.90,83
2788.93,75
2787.97,75
2787.00,90
2786.04,122
2785.08,149
2784.11,154
2783.15,136
2782.18,96
2781.22,63
2780.26,58
2779.29,69
2778.33,85
2777.36,99
2776.40,104
2775.43,90
2774.47,71
2773.51,75
2772.54,95
2771.58,103
2770.61,94
2769.65,73
2768.68,63
2767.72,69
2766.76,70
2765.79,63
2764.83,53
2763.86,52
2762.90,68
2761.93,84
2760.97,86
2760.01,89
2759.04,94
2758.08,98
2757.11,98
2756.15,85
2755.19,67
2754.22,63
2753.26,81
2752.29,105
2751.33,114
2750.36,120
2749.40,142
2748.44,157
2747.47,141
2746.51,107
2745.54,75
2744.58,56
2743.61,65
2742.65,89
2741.69,109
2740.72,115
2739.76,105
2738.79,88
2737.83,75
2736.86,70
2735.90,67
2734.94,70
2733.97,77
2733.01,79
2732.04,84
2731.08,83
2730.12,68
2729.15,54
2728.19,55
2727.22,71
2726.26,94
2725.29,111
2724.33,103
2723.37,82
2722.40,75
2721.44,77
2720.47,60
2719.51,39
2718.54,56
2717.58,96
2716.62,132
2715.65,146
2714.69,132
2713.72,102
2712.76,83
2711.79,82
2710.83,83
2709.87,82
2708.90,83
2707.94,66
2706.97,47
2706.01,33
2705.05,11
2704.08,-3
2703.12,12
2702.15,37
2701.19,43
2700.22,28
2699.26,6
2698.30,-12
2697.33,-9
2696.37,14
2695.40,28
2694.44,21
2693.47,6
2692.51,-8
2691.55,-6
2690.58,16
2689.62,36
2688.65,36
2687.69,22
2686.72,9
2685.76,14
2684.80,30
2683.83,35
2682.87,24
2681.90,0
2680.94,-21
2679.98,-27
2679.01,-17
2678.05,-4
2677.08,2
2676.12,4
2675.15,4
2674.19,-6
2673.23,-23
2672.26,-41
2671.30,-61
2670.33,-73
2669.37,-74
2668.40,-74
2667.44,-78
2666.48,-76
2665.51,-60
2664.55,-41
2663.58,-37
2662.62,-49
2661.65,-58
2660.69,-60
2659.73,-74
2658.76,-93
2657.80,-78
2656.83,-48
2655.87,-37
2654.91,-42
2653.94,-55
2652.98,-61
2652.01,-61
2651.05,-59
2650.08,-57
2649.12,-66
2648.16,-79
2647.19,-84
2646.23,-82
2645.26,-73
2644.30,-59
2643.33,-39
2642.37,-13
2641.41,6
2640.44,11
2639.48,-2
2638.51,-28
2637.55,-50
2636.58,-53
2635.62,-44
2634.66,-38
2633.69,-42
2632.73,-50
2631.76,-51
2630.80,-36
2629.83,-0
2628.87,49
2627.91,93
2626.94,104
2625.98,71
2625.01,23
2624.05,5
2623.09,16
2622.12,16
2621.16,0
2620.19,9
2619.23,33
2618.26,41
2617.30,38
2616.34,34
2615.37,27
2614.41,19
2613.44,10
2612.48,-2
2611.51,-17
2610.55,-20
2609.59,-8
2608.62,3
2607.66,1
2606.69,-2
2605.73,5
2604.76,11
2603.80,12
2602.84,18
2601.87,27
2600.91,24
2599.94,2
2598.98,-17
2598.02,-17
2597.05,-14
2596.09,-9
2595.12,1
2594.16,3
2593.19,6
2592.23,22
2591.27,38
2590.30,35
2589.34,26
2588.37,29
2587.41,36
2586.44,26
2585.48,7
2584.52,8
2583.55,9
2582.59,1
2581.62,10
2580.66,33
2579.69,55
2578.73,67
2577.77,58
2576.80,28
2575.84,1
2574.87,-2
2573.91,17
2572.95,42
2571.98,47
2571.02,23
2570.05,-3
2569.09,-2
2568.12,27
2567.16,63
2566.20,80
2565.23,68
2564.27,41
2563.30,20
2562.34,27
2561.37,48
2560.41,50
2559.45,34
2558.48,27
2557.52,22
2556.55,11
2555.59,13
2554.62,34
2553.66,43
2552.70,19
2551.73,-14
2550.77,-22
2549.80,-14
2548.84,-20
2547.88,-35
2546.91,-36
2545.95,-33
2544.98,-31
2544.02,-14
2543.05,9
2542.09,24
2541.13,22
2540.16,5
2539.20,-17
2538.23,-23
2537.27,-8
2536.30,14
2535.34,24
2534.38,29
2533.41,31
2532.45,20
2531.48,9
2530.52,5
2529.55,0
2528.59,-0
2527.63,11
2526.66,31
2525.70,48
2524.73,51
2523.77,40
2522.81,19
2521.84,3
2520.88,1
2519.91,12
2518.95,24
2517.98,17
2517.02,-0
2516.06,-5
2515.09,9
2514.13,39
2513.16,68
2512.20,71
2511.23,46
2510.27,18
2509.31,7
2508.34,23
2507.38,51
2506.41,60
2505.45,48
2504.48,27
2503.52,20
2502.56,42
2501.59,66
2500.63,62
2499.66,46
2498.70,46
2497.74,63
2496.77,82
2495.81,93
2494.84,98
2493.88,93
2492.91,69
2491.95,46
2490.99,44
2490.02,60
2489.06,79
2488.09,81
2487.13,65
2486.16,43
2485.20,29
2484.24,33
2483.27,60
2482.31,89
2481.34,103
2480.38,96
2479.41,77
2478.45,57
2477.49,44
2476.52,37
2475.56,27
2474.59,9
2473.63,0
2472.66,11
2471.70,26
2470.74,34
2469.77,45
2468.81,40
2467.84,25
2466.88,33
2465.92,47
2464.95,53
2463.99,58
2463.02,56
2462.06,39
2461.09,22
2460.13,17
2459.17,17
2458.20,22
2457.24,23
2456.27,9
2455.31,1
2454.34,16
2453.38,39
2452.42,50
2451.45,41
2450.49,23
2449.52,15
2448.56,23
2447.59,37
2446.63,35
2445.67,21
2444.70,24
2443.74,55
2442.77,95
2441.81,118
2440.85,124
2439.88,125
2438.92,116
2437.95,100
2436.99,88
2436.02,80
2435.06,73
2434.10,74
2433.13,81
2432.17,85
2431.20,95
2430.24,116
2429.27,131
2428.31,108
2427.35,67
2426.38,40
2425.42,28
2424.45,30
2423.49,44
2422.52,57
2421.56,64
2420.60,78
2419.63,95
2418.67,94
2417.70,79
2416.74,70
2415.78,61
2414.81,37
2413.85,6
2412.88,-17
2411.92,-12
2410.95,20
2409.99,51
2409.03,53
2408.06,39
2407.10,18
2406.13,-7
2405.17,-13
2404.20,7
2403.24,35
2402.28,56
2401.31,59
2400.35,50
2399.38,44
2398.42,50
2397.45,60
2396.49,65
2395.53,58
2394.56,43
2393.60,30
2392.63,22
2391.67,15
2390.71,10
2389.74,10
2388.78,17
2387.81,34
2386.85,45
2385.88,46
2384.92,41
2383.96,26
2382.99,2
2382.03,-17
2381.06,-10
2380.10,24
2379.13,69
2378.17,100
2377.21,102
2376.24,88
2375.28,66
2374.31,34
2373.35,-0
2372.38,-16
2371.42,-1
2370.46,27
2369.49,36
2368.53,26
2367.56,25
2366.60,38
2365.64,43
2364.67,33
2363.71,11
2362.74,-8
2361.78,-14
2360.81,-10
2359.85,-0
2358.89,1
2357.92,-18
2356.96,-42
2355.99,-45
2355.03,-20
2354.06,15
2353.10,25
2352.14,8
2351.17,0
2350.21,7
2349.24,24
2348.28,52
2347.31,71
2346.35,70
2345.39,46
2344.42,13
2343.46,-10
2342.49,-19
2341.53,-22
2340.57,-18
2339.60,-6
2338.64,11
2337.67,28
2336.71,30
2335.74,16
2334.78,8
2333.82,7
2332.85,-3
2331.89,-10
2330.92,0
2329.96,25
2328.99,49
2328.03,60
2327.07,53
2326.10,45
2325.14,49
2324.17,59
2323.21,61
2322.24,44
2321.28,24
2320.32,22
2319.35,32
2318.39,36
2317.42,37
2316.46,46
2315.49,57
2314.53,58
2313.57,57
2312.60,54
2311.64,41
2310.67,37
2309.71,49
2308.75,52
2307.78,42
2306.82,30
2305.85,18
2304.89,9
2303.92,13
2302.96,23
2302.00,18
2301.03,-3
2300.07,-10
2299.10,7
2298.14,12
2297.17,1
2296.21,10
2295.25,22
2294.28,14
2293.32,7
2292.35,19
2291.39,37
2290.42,39
2289.46,27
2288.50,3
2287.53,-23
2286.57,-27
2285.60,-13
2284.64,-0
2283.68,12
2282.71,22
2281.75,30
2280.78,42
2279.82,47
2278.85,42
2277.89,29
2276.93,20
2275.96,23
2275.00,35
2274.03,45
2273.07,59
2272.10,69
2271.14,52
2270.18,35
2269.21,43
2268.25,48
2267.28,33
2266.32,12
2265.35,6
2264.39,18
2263.43,32
2262.46,41
2261.50,57
2260.53,89
2259.57,118
2258.61,108
2257.64,54
2256.68,-6
2255.71,-43
2254.75,-37
2253.78,3
2252.82,37
2251.86,48
2250.89,45
2249.93,37
2248.96,54
2248.00,96
2247.03,100
2246.07,61
2245.11,33
2244.14,9
2243.18,-5
2242.21,6
2241.25,15
2240.28,24
2239.32,37
2238.36,45
2237.39,45
2236.43,47
2235.46,42
2234.50,14
2233.54,-16
2232.57,-13
2231.61,17
2230.64,46
2229.68,48
2228.71,27
2227.75,14
2226.79,17
2225.82,16
2224.86,14
2223.89,23
2222.93,38
2221.96,41
2221.00,36
2220.04,41
2219.07,44
2218.11,18
2217.14,-16
2216.18,-20
2215.21,6
2214.25,45
2213.29,71
2212.32,60
2211.36,25
2210.39,-1
2209.43,-4
2208.47,-0
2207.50,-3
2206.54,-12
2205.57,-18
2204.61,-11
2203.64,16
2202.68,46
2201.72,66
2200.75,79
2199.79,83
2198.82,74
2197.86,59
2196.89,44
2195.93,24
2194.97,-10
2194.00,-43
2193.04,-49
2192.07,-27
2191.11,3
2190.14,22
2189.18,36
2188.22,50
2187.25,57
2186.29,54
2185.32,53
2184.36,54
2183.40,48
2182.43,36
2181.47,19
2180.50,0
2179.54,-9
2178.57,-4
2177.61,7
2176.65,19
2175.68,24
2174.72,18
2173.75,7
2172.79,0
2171.82,2
2170.86,10
2169.90,14
2168.93,13
2167.97,11
2167.00,6
2166.04,-0
2165.07,-1
2164.11,7
2163.15,18
2162.18,29
2161.22,36
2160.25,31
2159.29,15
2158.32,8
2157.36,17
2156.40,25
2155.43,20
2154.47,10
2153.50,3
2152.54,3
2151.58,12
2150.61,21
2149.65,19
2148.68,10
2147.72,9
2146.75,25
2145.79,43
2144.83,52
2143.86,46
2142.90,24
2141.93,-9
2140.97,-37
2140.00,-44
2139.04,-35
2138.08,-20
2137.11,-4
2136.15,-1
2135.18,-13
2134.22,-22
2133.25,-13
2132.29,6
2131.33,22
2130.36,27
2129.40,20
2128.43,8
2127.47,4
2126.51,5
2125.54,0
2124.58,-1
2123.61,8
2122.65,11
2121.68,1
2120.72,-8
2119.76,-9
2118.79,-3
2117.83,6
2116.86,4
2115.90,-8
2114.93,-23
2113.97,-28
2113.01,-18
2112.04,-1
2111.08,5
2110.11,4
2109.15,9
2108.18,11
2107.22,1
2106.26,-10
2105.29,-15
2104.33,-9
2103.36,7
2102.40,22
2101.44,40
2100.47,60
2099.51,63
2098.54,36
2097.58,-3
2096.61,-29
2095.65,-47
2094.69,-67
2093.72,-84
2092.76,-75
2091.79,-43
2090.83,-12
2089.86,5
2088.90,5
2087.94,-8
2086.97,-23
2086.01,-30
2085.04,-24
2084.08,-8
2083.11,7
2082.15,14
2081.19,14
2080.22,8
2079.26,3
2078.29,13
2077.33,33
2076.37,38
2075.40,19
2074.44,-3
2073.47,-1
2072.51,9
2071.54,2
2070.58,-23
2069.62,-41
2068.65,-36
2067.69,-16
2066.72,6
2065.76,21
2064.79,26
2063.83,30
2062.87,35
2061.90,31
2060.94,10
2059.97,-14
2059.01,-24
2058.04,-19
2057.08,-13
2056.12,-16
2055.15,-29
2054.19,-42
2053.22,-36
2052.26,-9
2051.30,11
2050.33,-2
2049.37,-22
2048.40,-19
2047.44,2
2046.47,17
2045.51,22
2044.55,24
2043.58,30
2042.62,40
2041.65,54
2040.69,68
2039.72,77
2038.76,68
2037.80,47
2036.83,19
2035.87,-2
2034.90,-4
2033.94,11
2032.97,31
2032.01,45
2031.05,45
2030.08,28
2029.12,1
2028.15,-26
2027.19,-32
2026.23,-15
2025.26,2
2024.30,9
2023.33,15
2022.37,23
2021.40,22
2020.44,15
2019.48,2
2018.51,-13
2017.55,-23
2016.58,-25
2015.62,-25
2014.65,-24
2013.69,-13
2012.73,5
2011.76,27
2010.80,58
2009.83,88
2008.87,100
2007.90,93
2006.94,76
2005.98,50
2005.01,20
2004.05,-10
2003.08,-29
2002.12,-28
2001.15,-15
2000.19,1
1999.23,12
1998.26,12
1997.30,1
1996.33,-8
1995.37,-13
1994.41,-14
1993.44,-13
1992.48,-17
1991.51,-15
1990.55,-10
1989.58,-5
1988.62,8
1987.66,23
1986.69,25
1985.73,15
1984.76,13
1983.80,24
1982.83,44
1981.87,68
1980.91,72
1979.94,35
1978.98,-12
1978.01,-33
1977.05,-23
1976.08,0
1975.12,18
1974.16,25
1973.19,17
1972.23,-2
1971.26,-17
1970.30,-8
1969.34,22
1968.37,43
1967.41,51
1966.44,52
1965.48,35
1964.51,17
1963.55,13
1962.59,15
1961.62,24
1960.66,31
1959.69,18
1958.73,-9
1957.76,-23
1956.80,-28
1955.84,-24
1954.87,0
1953.91,21
1952.94,29
1951.98,38
1951.01,40
1950.05,34
1949.09,32
1948.12,34
1947.16,31
1946.19,21
1945.23,10
1944.27,10
1943.30,27
1942.34,53
1941.37,76
1940.41,85
1939.44,72
1938.48,49
1937.52,35
1936.55,24
1935.59,12
1934.62,10
1933.66,23
1932.69,42
1931.73,56
1930.77,59
1929.80,46
1928.84,28
1927.87,13
1926.91,3
1925.94,-1
1924.98,11
1924.02,33
1923.05,40
1922.09,38
1921.12,38
1920.16,37
1919.20,41
1918.23,54
1917.27,68
1916.30,70
1915.34,53
1914.37,30
1913.41,14
1912.45,1
1911.48,-8
1910.52,-5
1909.55,1
1908.59,4
1907.62,10
1906.66,9
1905.70,-1
1904.73,-7
1903.77,-14
1902.80,-24
1901.84,-19
1900.87,5
1899.91,17
1898.95,4
1897.98,-1
1897.02,17
1896.05,44
1895.09,68
1894.13,77
1893.16,58
1892.20,26
1891.23,3
1890.27,-9
1889.30,-15
1888.34,-11
1887.38,6
1886.41,30
1885.45,53
1884.48,62
1883.52,44
1882.55,12
1881.59,-2
1880.63,7
1879.66,21
1878.70,30
1877.73,32
1876.77,21
1875.80,10
1874.84,21
1873.88,49
1872.91,73
1871.95,82
1870.98,73
1870.02,45
1869.06,15
1868.09,11
1867.13,43
1866.16,80
1865.20,81
1864.23,54
1863.27,28
1862.31,18
1861.34,12
1860.38,0
1859.41,-13
1858.45,-13
1857.48,-1
1856.52,13
1855.56,19
1854.59,29
1853.63,48
1852.66,67
1851.70,64
1850.73,34
1849.77,6
1848.81,1
1847.84,12
1846.88,30
1845.91,35
1844.95,22
1843.98,18
1843.02,46
1842.06,80
1841.09,83
1840.13,44
1839.16,-4
1838.20,-29
1837.24,-23
1836.27,4
1835.31,35
1834.34,47
1833.38,42
1832.41,36
1831.45,30
1830.49,17
1829.52,4
1828.56,1
1827.59,6
1826.63,14
1825.66,34
1824.70,59
1823.74,72
1822.77,67
1821.81,57
1820.84,39
1819.88,17
1818.91,12
1817.95,17
1816.99,13
1816.02,-0
1815.06,-8
1814.09,-3
1813.13,9
1812.17,23
1811.20,39
1810.24,53
1809.27,58
1808.31,60
1807.34,67
1806.38,66
1805.42,50
1804.45,37
1803.49,31
1802.52,21
1801.56,4
1800.59,-4
1799.63,6
1798.67,27
1797.70,43
1796.74,57
1795.77,68
1794.81,67
1793.84,58
1792.88,54
1791.92,53
1790.95,54
1789.99,51
1789.02,35
1788.06,9
1787.10,-10
1786.13,-14
1785.17,-2
1784.20,27
1783.24,68
1782.27,102
1781.31,111
1780.35,112
1779.38,118
1778.42,112
1777.45,107
1776.49,127
1775.52,152
1774.56,157
1773.60,140
1772.63,117
1771.67,109
1770.70,127
1769.74,176
1768.77,238
1767.81,277
1766.85,275
1765.88,260
1764.92,271
1763.95,301
1762.99,330
1762.03,358
1761.06,397
1760.10,441
1759.13,467
1758.17,465
1757.20,462
1756.24,496
1755.28,567
1754.31,647
1753.35,727
1752.38,810
1751.42,889
1750.45,973
1749.49,1101
1748.53,1275
1747.56,1480
1746.60,1705
1745.63,1945
1744.67,2199
1743.70,2480
1742.74,2797
1741.78,3146
1740.81,3521
1739.85,3915
1738.88,4324
1737.92,4751
1736.96,5205
1735.99,5705
1735.03,6289
1734.06,6966
1733.10,7759
1732.13,8701
1731.17,9745
1730.21,10897
1729.24,12114
1728.28,13147
1727.31,13894
1726.35,14132
1725.38,13626
1724.42,12632
1723.46,11343
1722.49,9867
1721.53,8691
1720.56,7709
1719.60,6928
1718.63,6327
1717.67,5780
1716.71,5262
1715.74,4767
1714.78,4250
1713.81,3729
1712.85,3229
1711.89,2755
1710.92,2318
1709.96,1933
1708.99,1598
1708.03,1326
1707.06,1105
1706.10,919
1705.14,776
1704.17,660
1703.21,567
1702.24,485
1701.28,422
1700.31,377
1699.35,339
1698.39,305
1697.42,277
1696.46,247
1695.49,206
1694.53,159
1693.56,134
1692.60,130
1691.64,133
1690.67,153
1689.71,172
1688.74,165
1687.78,150
1686.81,150
1685.85,159
1684.89,159
1683.92,142
1682.96,115
1681.99,91
1681.03,74
1680.07,67
1679.10,62
1678.14,56
1677.17,46
1676.21,28
1675.24,23
1674.28,39
1673.32,44
1672.35,26
1671.39,10
1670.42,-5
1669.46,-37
1668.49,-71
1667.53,-80
1666.57,-59
1665.60,-31
1664.64,-8
1663.67,3
1662.71,-17
1661.74,-63
1660.78,-80
1659.82,-56
1658.85,-21
1657.89,0
1656.92,-1
1655.96,-17
1655.00,-28
1654.03,-30
1653.07,-23
1652.10,-7
1651.14,19
1650.17,53
1649.21,93
1648.25,132
1647.28,159
1646.32,164
1645.35,164
1644.39,189
1643.42,227
1642.46,236
1641.50,232
1640.53,247
1639.57,289
1638.60,350
1637.64,415
1636.67,478
1635.71,543
1634.75,614
1633.78,692
1632.82,780
1631.85,887
1630.89,1016
1629.93,1156
1628.96,1344
1628.00,1568
1627.03,1863
1626.07,2234
1625.10,2800
1624.14,3568
1623.18,4629
1622.21,6044
1621.25,7882
1620.28,10239
1619.32,13095
1618.35,16196
1617.39,19296
1616.43,22181
1615.46,23950
1614.50,24943
1613.53,24303
1612.57,22369
1611.60,20034
1610.64,17178
1609.68,14442
1608.71,12018
1607.75,9917
1606.78,8196
1605.82,6822
1604.86,5710
1603.89,4815
1602.93,4093
1601.96,3456
1601.00,2917
1600.03,2395
1599.07,1958
1598.11,1619
1597.14,1379
1596.18,1192
1595.21,1044
1594.25,910
1593.28,778
1592.32,652
1591.36,551
1590.39,486
1589.43,442
1588.46,393
1587.50,357
1586.53,364
1585.57,389
1584.61,391
1583.64,379
1582.68,362
1581.71,343
1580.75,318
1579.79,297
1578.82,301
1577.86,328
1576.89,348
1575.93,330
1574.96,270
1574.00,193
1573.04,128
1572.07,92
1571.11,92
1570.14,111
1569.18,108
1568.21,71
1567.25,33
1566.29,8
1565.32,-12
1564.36,-32
1563.39,-37
1562.43,-14
1561.46,16
1560.50,22
1559.54,0
1558.57,-12
1557.61,6
1556.64,30
1555.68,37
1554.72,29
1553.75,22
1552.79,20
1551.82,15
1550.86,1
1549.89,-7
1548.93,-1
1547.97,8
1547.00,-1
1546.04,-30
1545.07,-62
1544.11,-78
1543.14,-71
1542.18,-52
1541.22,-42
1540.25,-48
1539.29,-64
1538.32,-78
1537.36,-81
1536.39,-69
1535.43,-51
1534.47,-36
1533.50,-19
1532.54,4
1531.57,22
1530.61,26
1529.64,13
1528.68,-4
1527.72,-14
1526.75,-14
1525.79,-5
1524.82,11
1523.86,17
1522.90,-3
1521.93,-36
1520.97,-71
1520.00,-77
1519.04,-54
1518.07,-24
1517.11,-4
1516.15,0
1515.18,-9
1514.22,-25
1513.25,-38
1512.29,-39
1511.32,-32
1510.36,-37
1509.40,-58
1508.43,-62
1507.47,-30
1506.50,11
1505.54,50
1504.57,49
1503.61,14
1502.65,-13
1501.68,-7
1500.72,12
1499.75,5
1498.79,-34
1497.83,-67
1496.86,-56
1495.90,-1
1494.93,47
1493.97,48
1493.00,6
1492.04,-46
1491.08,-60
1490.11,-31
1489.15,8
1488.18,20
1487.22,7
1486.25,-3
1485.29,6
1484.33,23
1483.36,33
1482.40,46
1481.43,73
1480.47,109
1479.50,143
1478.54,171
1477.58,197
1476.61,220
1475.65,234
1474.68,233
1473.72,225
1472.76,233
1471.79,251
1470.83,277
1469.86,326
1468.90,398
1467.93,472
1466.97,541
1466.01,614
1465.04,693
1464.08,769
1463.11,838
1462.15,904
1461.18,929
1460.22,909
1459.26,876
1458.29,853
1457.33,850
1456.36,845
1455.40,822
1454.43,770
1453.47,695
1452.51,623
1451.54,578
1450.58,561
1449.61,556
1448.65,555
1447.69,542
1446.72,504
1445.76,463
1444.79,448
1443.83,443
1442.86,434
1441.90,436
1440.94,451
1439.97,435
1439.01,363
1438.04,277
1437.08,232
1436.11,231
1435.15,246
1434.19,261
1433.22,265
1432.26,240
1431.29,186
1430.33,131
1429.36,114
1428.40,134
1427.44,170
1426.47,226
1425.51,302
1424.54,356
1423.58,408
1422.62,492
1421.65,615
1420.69,768
1419.72,921
1418.76,1031
1417.79,1079
1416.83,1083
1415.87,1057
1414.90,1002
1413.94,906
1412.97,789
1412.01,714
1411.04,652
1410.08,574
1409.12,473
1408.15,362
1407.19,263
1406.22,195
1405.26,160
1404.29,132
1403.33,98
1402.37,73
1401.40,56
1400.44,35
1399.47,26
1398.51,37
1397.55,49
1396.58,38
1395.62,13
1394.65,-1
1393.69,-9
1392.72,-6
1391.76,2
1390.80,-6
1389.83,-33
1388.87,-67
1387.90,-90
1386.94,-94
1385.97,-93
1385.01,-105
1384.05,-121
1383.08,-107
1382.12,-62
1381.15,-18
1380.19,-7
1379.22,-30
1378.26,-52
1377.30,-50
1376.33,-31
1375.37,-15
1374.40,-11
1373.44,-11
1372.47,-8
1371.51,-1
1370.55,7
1369.58,-2
1368.62,-33
1367.65,-67
1366.69,-80
1365.73,-75
1364.76,-76
1363.80,-91
1362.83,-110
1361.87,-99
1360.90,-59
1359.94,-17
1358.98,-1
1358.01,-18
1357.05,-49
1356.08,-75
1355.12,-90
1354.15,-99
1353.19,-96
1352.23,-74
1351.26,-64
1350.30,-71
1349.33,-72
1348.37,-73
1347.40,-75
1346.44,-68
1345.48,-52
1344.51,-38
1343.55,-24
1342.58,-6
1341.62,7
1340.66,13
1339.69,18
1338.73,23
1337.76,21
1336.80,21
1335.83,31
1334.87,42
1333.91,46
1332.94,52
1331.98,88
1331.01,146
1330.05,195
1329.08,236
1328.12,275
1327.16,314
1326.19,348
1325.23,376
1324.26,404
1323.30,448
1322.33,513
1321.37,589
1320.41,658
1319.44,724
1318.48,812
1317.51,922
1316.55,1030
1315.59,1128
1314.62,1230
1313.66,1321
1312.69,1379
1311.73,1422
1310.76,1460
1309.80,1507
1308.84,1575
1307.87,1666
1306.91,1775
1305.94,1902
1304.98,2047
1304.01,2198
1303.05,2348
1302.09,2559
1301.12,2813
1300.16,3100
1299.19,3439
1298.23,3825
1297.26,4240
1296.30,4649
1295.34,5028
1294.37,5383
1293.41,5671
1292.44,5849
1291.48,5923
1290.52,5914
1289.55,5838
1288.59,5708
1287.62,5538
1286.66,5387
1285.69,5287
1284.73,5173
1283.77,5065
1282.80,4991
1281.84,4920
1280.87,4890
1279.91,4838
1278.94,4714
1277.98,4504
1277.02,4211
1276.05,3847
1275.09,3448
1274.12,3053
1273.16,2691
1272.19,2428
1271.23,2214
1270.27,2005
1269.30,1796
1268.34,1610
1267.37,1469
1266.41,1359
1265.45,1231
1264.48,1115
1263.52,1047
1262.55,987
1261.59,907
1260.62,814
1259.66,727
1258.70,661
1257.73,618
1256.77,589
1255.80,559
1254.84,511
1253.87,452
1252.91,391
1251.95,331
1250.98,286
1250.02,256
1249.05,235
1248.09,228
1247.12,241
1246.16,265
1245.20,270
1244.23,252
1243.27,230
1242.30,212
1241.34,193
1240.38,171
1239.41,148
1238.45,130
1237.48,115
1236.52,118
1235.55,128
1234.59,125
1233.63,104
1232.66,73
1231.70,38
1230.73,1
1229.77,-30
1228.80,-48
1227.84,-52
1226.88,-39
1225.91,-14
1224.95,10
1223.98,17
1223.02,8
1222.05,0
1221.09,9
1220.13,33
1219.16,44
1218.20,28
1217.23,4
1216.27,-16
1215.30,-21
1214.34,-14
1213.38,-5
1212.41,-6
1211.45,-19
1210.48,-31
1209.52,-16
1208.56,25
1207.59,69
1206.63,101
1205.66,127
1204.70,160
1203.73,205
1202.77,256
1201.81,303
1200.84,344
1199.88,369
1198.91,372
1197.95,378
1196.98,411
1196.02,478
1195.06,560
1194.09,633
1193.13,690
1192.16,748
1191.20,830
1190.23,931
1189.27,1024
1188.31,1099
1187.34,1157
1186.38,1199
1185.41,1225
1184.45,1201
1183.49,1137
1182.52,1068
1181.56,991
1180.59,928
1179.63,896
1178.66,887
1177.70,880
1176.74,857
1175.77,811
1174.81,739
1173.84,658
1172.88,581
1171.91,510
1170.95,429
1169.99,329
1169.02,226
1168.06,159
1167.09,117
1166.13,87
1165.16,68
1164.20,51
1163.24,30
1162.27,8
1161.31,-4
1160.34,-0
1159.38,15
1158.42,37
1157.45,57
1156.49,55
1155.52,49
1154.56,56
1153.59,70
1152.63,77
1151.67,82
1150.70,87
1149.74,88
1148.77,104
1147.81,128
1146.84,151
1145.88,173
1144.92,195
1143.95,213
1142.99,223
1142.02,228
1141.06,240
1140.09,260
1139.13,270
1138.17,263
1137.20,251
1136.24,252
1135.27,279
1134.31,327
1133.35,377
1132.38,420
1131.42,466
1130.45,529
1129.49,609
1128.52,697
1127.56,779
1126.60,855
1125.63,937
1124.67,1041
1123.70,1162
1122.74,1292
1121.77,1421
1120.81,1547
1119.85,1661
1118.88,1758
1117.92,1844
1116.95,1884
1115.99,1877
1115.02,1849
1114.06,1808
1113.10,1758
1112.13,1696
1111.17,1627
1110.20,1565
1109.24,1539
1108.28,1547
1107.31,1575
1106.35,1612
1105.38,1650
1104.42,1683
1103.45,1716
1102.49,1773
1101.53,1873
1100.56,2034
1099.60,2258
1098.63,2518
1097.67,2787
1096.70,3008
1095.74,3138
1094.78,3166
1093.81,3094
1092.85,2917
1091.88,2685
1090.92,2414
1089.95,2092
1088.99,1779
1088.03,1492
1087.06,1239
1086.10,1055
1085.13,922
1084.17,793
1083.21,681
1082.24,589
1081.28,515
1080.31,451
1079.35,389
1078.38,329
1077.42,277
1076.46,236
1075.49,209
1074.53,191
1073.56,171
1072.60,152
1071.63,136
1070.67,115
1069.71,71
1068.74,28
1067.78,31
1066.81,58
1065.85,84
1064.88,89
1063.92,71
1062.96,39
1061.99,1
1061.03,-36
1060.06,-55
1059.10,-54
1058.13,-41
1057.17,-21
1056.21,0
1055.24,8
1054.28,-10
1053.31,-41
1052.35,-58
1051.39,-42
1050.42,-12
1049.46,9
1048.49,11
1047.53,3
1046.56,-6
1045.60,-6
1044.64,2
1043.67,11
1042.71,15
1041.74,9
1040.78,2
1039.81,8
1038.85,37
1037.89,64
1036.92,56
1035.96,33
1034.99,14
1034.03,-3
1033.06,-26
1032.10,-45
1031.14,-45
1030.17,-24
1029.21,6
1028.24,36
1027.28,56
1026.32,58
1025.35,43
1024.39,21
1023.42,10
1022.46,23
1021.49,48
1020.53,75
1019.57,95
1018.60,101
1017.64,95
1016.67,91
1015.71,96
1014.74,111
1013.78,125
1012.82,129
1011.85,126
1010.89,126
1009.92,140
1008.96,177
1007.99,240
1007.03,314
1006.07,381
1005.10,441
1004.14,504
1003.17,578
1002.21,660
1001.25,733
1000.28,790
999.32,825
998.35,850
997.39,850
996.42,824
995.46,784
994.50,741
993.53,685
992.57,595
991.60,490
990.64,393
989.67,322
988.71,273
987.75,232
986.78,191
985.82,154
984.85,125
983.89,103
982.92,73
981.96,35
981.00,1
980.03,-18
979.07,-22
978.10,-29
977.14,-46
976.18,-63
975.21,-77
974.25,-88
973.28,-100
972.32,-111
971.35,-111
970.39,-80
969.43,-35
968.46,-14
967.50,-34
966.53,-78
965.57,-110
964.60,-113
963.64,-98
962.68,-68
961.71,-27
960.75,6
959.78,16
958.82,0
957.85,-27
956.89,-52
955.93,-70
954.96,-86
954.00,-92
953.03,-83
952.07,-64
951.11,-40
950.14,-9
949.18,14
948.21,24
947.25,27
946.28,28
945.32,26
944.36,20
943.39,9
942.43,-6
941.46,-8
940.50,12
939.53,44
938.57,75
937.61,96
936.64,99
935.68,85
934.71,74
933.75,79
932.78,94
931.82,113
930.86,129
929.89,143
928.93,149
927.96,140
927.00,122
926.04,111
925.07,115
924.11,131
923.14,153
922.18,173
921.21,192
920.25,200
919.29,196
918.32,188
917.36,178
916.39,169
915.43,164
914.46,171
913.50,197
912.54,219
911.57,233
910.61,243
909.64,254
908.68,266
907.71,281
906.75,291
905.79,282
904.82,269
903.86,280
902.89,327
901.93,391
900.96,424
900.00,414
899.04,417
898.07,421
897.11,412
896.14,400
895.18,408
894.22,449
893.25,516
892.29,575
891.32,620
890.36,666
889.39,724
888.43,793
887.47,852
886.50,895
885.54,935
884.57,950
883.61,950
882.64,961
881.68,993
880.72,1013
879.75,986
878.79,954
877.82,936
876.86,931
875.89,950
874.93,999
873.97,1063
873.00,1124
872.04,1194
871.07,1296
870.11,1424
869.15,1570
868.18,1746
867.22,1990
866.25,2302
865.29,2745
864.32,3315
863.36,3979
862.40,4709
861.43,5408
860.47,5908
859.50,6241
858.54,6275
857.57,6055
856.61,5656
855.65,5120
854.68,4493
853.72,3867
852.75,3378
851.79,2926
850.82,2526
849.86,2192
848.90,1923
847.93,1712
846.97,1547
846.00,1402
845.04,1278
844.08,1161
843.11,1066
842.15,1000
841.18,954
840.22,922
839.25,904
838.29,898
837.33,897
836.36,883
835.40,856
834.43,829
833.47,829
832.50,834
831.54,821
830.58,821
829.61,827
828.65,818
827.68,791
826.72,773
825.75,765
824.79,744
823.83,716
822.86,697
821.90,695
820.93,701
819.97,687
819.01,648
818.04,610
817.08,588
816.11,583
815.15,587
814.18,591
813.22,595
812.26,595
811.29,583
810.33,573
809.36,575
808.40,582
807.43,574
806.47,557
805.51,549
804.54,547
803.58,548
802.61,556
801.65,580
800.68,634
799.72,734
798.76,843
797.79,935
796.83,1002
795.86,1027
794.90,991
793.94,936
792.97,847
792.01,708
791.04,579
790.08,474
789.11,383
788.15,314
787.19,285
786.22,270
785.26,252
784.29,235
783.33,224
782.36,227
781.40,244
780.44,251
779.47,231
778.51,199
777.54,175
776.58,164
775.61,154
774.65,133
773.69,111
772.72,81
771.76,54
770.79,48
769.83,68
768.87,101
767.90,125
766.94,138
765.97,146
765.01,153
764.04,157
763.08,153
762.12,131
761.15,96
760.19,73
759.22,70
758.26,78
757.29,79
756.33,61
755.37,34
754.40,26
753.44,37
752.47,49
751.51,44
750.54,20
749.58,0
748.62,7
747.65,31
746.69,60
745.72,81
744.76,88
743.79,76
742.83,47
741.87,17
740.90,6
739.94,18
738.97,47
738.01,74
737.05,86
736.08,86
735.12,92
734.15,112
733.19,139
732.22,158
731.26,157
730.30,140
729.33,127
728.37,132
727.40,148
726.44,160
725.47,148
724.51,112
723.55,72
722.58,41
721.62,23
720.65,20
719.69,28
718.72,40
717.76,54
716.80,75
715.83,104
714.87,137
713.90,166
712.94,185
711.98,203
711.01,240
710.05,308
709.08,411
708.12,549
707.15,720
706.19,902
705.23,1054
704.26,1200
703.30,1270
702.33,1251
701.37,1164
700.40,996
699.44,724
698.48,484
697.51,302
696.55,179
695.58,113
694.62,103
693.65,122
692.69,125
691.73,120
690.76,103
689.80,64
688.83,7
687.87,16
686.91,256
685.94,385
684.98,246
684.01,46
683.05,142
682.08,413
681.12,315
680.16,134
679.19,51
678.23,82
677.26,139
676.30,139
675.33,131
674.37,117
673.41,98
672.44,84
671.48,78
670.51,66
669.55,32
668.58,11
667.62,6
666.66,8
665.69,15
664.73,31
663.76,56
662.80,70
661.84,75
660.87,76
659.91,77
658.94,72
657.98,50
657.01,24
656.05,11
655.09,12
654.12,21
653.16,29
652.19,36
651.23,54
650.26,66
649.30,63
648.34,50
647.37,43
646.41,50
645.44,71
644.48,105
643.51,144
642.55,181
641.59,212
640.62,240
639.66,320
638.69,513
637.73,843
636.77,1366
635.80,2106
634.84,2970
633.87,3598
632.91,4135
631.94,4323
630.98,4141
630.02,3662
629.05,2902
628.09,1801
627.12,1052
626.16,649
625.19,454
624.23,313
623.27,179
622.30,92
621.34,29
620.37,-5
619.41,-18
618.44,-20
617.48,-11
616.52,-6
615.55,1
614.59,11
613.62,18
612.66,16
611.70,6
610.73,-1
609.77,-8
608.80,-17
607.84,-21
606.87,-14
605.91,4
604.95,23
603.98,34
603.02,35
602.05,26
601.09,10
600.12,-6
599.16,-15
598.20,-20
597.23,-27
596.27,-37
595.30,-50
594.34,-61
593.37,-62
592.41,-46
591.45,-22
590.48,0
589.52,13
588.55,11
587.59,-5
586.62,-23
585.66,-35
584.70,-36
583.73,-25
582.77,-3
581.80,17
580.84,28
579.88,43
578.91,67
577.95,100
576.98,125
576.02,164
575.05,200
574.09,217
573.13,215
572.16,201
571.20,181
570.23,150
569.27,110
568.30,78
567.34,64
566.38,76
565.41,99
564.45,100
563.48,92
562.52,89
561.55,92
560.59,85
559.63,60
558.66,43
557.70,28
556.73,17
555.77,18
554.81,44
553.84,73
552.88,86
551.91,89
550.95,90
549.98,96
549.02,110
548.06,118
547.09,110
546.13,87
545.16,62
544.20,45
543.23,46
542.27,55
541.31,63
540.34,60
539.38,42
538.41,10
537.45,-17
536.48,-26
535.52,-27
534.56,-26
533.59,-20
532.63,-5
531.66,14
530.70,24
529.74,20
528.77,12
527.81,7
526.84,12
525.88,16
524.91,13
523.95,5
522.99,-5
522.02,-15
521.06,-19
520.09,-12
519.13,-7
518.16,-9
517.20,-20
516.24,-40
515.27,-62
514.31,-69
513.34,-56
512.38,-33
511.41,-16
510.45,-18
509.49,-33
508.52,-41
507.56,-37
506.59,-20
505.63,7
504.67,30
503.70,32
502.74,25
501.77,14
500.81,6
499.84,6
498.88,8
497.92,0
496.95,-12
495.99,-20
495.02,-21
494.06,-15
493.09,-8
492.13,-4
491.17,-1
490.20,5
489.24,18
488.27,44
487.31,70
486.34,89
485.38,99
484.42,98
483.45,86
482.49,77
481.52,81
480.56,83
479.60,79
478.63,68
477.67,61
476.70,59
475.74,46
474.77,23
473.81,-4
472.85,-23
471.88,-18
470.92,-3
469.95,4
468.99,2
468.02,-4
467.06,-3
466.10,0
465.13,4
464.17,12
463.20,23
462.24,28
461.27,22
460.31,8
459.35,-6
458.38,-14
457.42,-8
456.45,15
455.49,43
454.53,53
453.56,44
452.60,29
451.63,20
450.67,24
449.70,15
448.74,7
447.78,12
446.81,32
445.85,52
444.88,51
443.92,48
442.95,45
441.99,42
441.03,37
440.06,30
439.10,20
438.13,7
437.17,-8
436.20,-20
435.24,-22
434.28,-16
433.31,-18
432.35,-33
431.38,-50
430.42,-57
429.45,-31
428.49,11
427.53,31
426.56,24
425.60,-2
424.63,-23
423.67,-22
422.71,-14
421.74,-6
420.78,1
419.81,13
418.85,28
417.88,37
416.92,38
415.96,34
414.99,25
414.03,9
413.06,-8
412.10,-9
411.13,2
410.17,18
409.21,31
408.24,40
407.28,39
406.31,32
405.35,25
404.38,24
403.42,31
402.46,40
401.49,40
400.53,32
399.56,18
398.60,4
397.64,-17
396.67,-37
395.71,-42
394.74,-27
393.78,8
392.81,45
391.85,62
390.89,54
389.92,26
388.96,-11
387.99,-35
387.03,-20
386.06,12
385.10,43
384.14,58
383.17,50
382.21,36
381.24,26
380.28,13
379.31,-8
378.35,-38
377.39,-64
376.42,-60
375.46,-38
374.49,-13
373.53,-2
372.57,-9
371.60,-21
370.64,-33
369.67,-40
368.71,-38
367.74,-31
366.78,-38
365.82,-49
364.85,-51
363.89,-38
362.92,-11
361.96,14
360.99,26
360.03,25
359.07,12
358.10,-4
357.14,-4
356.17,23
355.21,58
354.24,90
353.28,105
352.32,88
351.35,34
350.39,-19
349.42,-55
348.46,-69
347.50,-61
346.53,-37
345.57,-17
344.60,-3
343.64,5
342.67,8
341.71,0
340.75,-21
339.78,-42
338.82,-53
337.85,-47
336.89,-34
335.92,-41
334.96,-57
334.00,-74
333.03,-85
332.07,-93
331.10,-102
330.14,-105
329.17,-100
328.21,-86
327.25,-62
326.28,-37
325.32,-19
324.35,-13
323.39,-15
322.43,-23
321.46,-22
320.50,-13
319.53,-8
318.57,-13
317.60,-29
316.64,-38
315.68,-28
314.71,-7
313.75,16
312.78,34
311.82,44
310.85,57
309.89,66
308.93,70
307.96,70
307.00,67
306.03,58
305.07,59
304.10,83
303.14,132
302.18,194
301.21,232
300.25,240
299.28,225
298.32,197
297.36,167
296.39,158
295.43,172
294.46,196
293.50,218
292.53,228
291.57,226
290.61,236
289.64,261
288.68,301
287.71,352
286.75,417
285.78,492
284.82,575
283.86,656
282.89,728
281.93,773
280.96,803
280.00,820
279.03,819
278.07,798
277.11,744
276.14,677
275.18,629
274.21,601
273.25,583
272.28,555
271.32,514
270.36,481
269.39,458
268.43,442
267.46,416
266.50,375
265.54,331
264.57,293
263.61,262
262.64,233
261.68,201
260.71,177
259.75,167
258.79,168
257.82,168
256.86,145
255.89,116
254.93,86
253.96,61
253.00,43
252.04,38
251.07,33
250.11,26
249.14,17
248.18,10
247.21,5
246.25,0
245.29,-9
244.32,-25
243.36,-54
242.39,-80
241.43,-87
240.47,-81
239.50,-67
238.54,-58
237.57,-54
236.61,-50
235.64,-42
234.68,-31
233.72,-22
232.75,-22
231.79,-9
230.82,17
229.86,50
228.89,72
227.93,87
226.97,99
226.00,103
225.04,94
224.07,74
223.11,44
222.14,10
221.18,-16
220.22,-28
219.25,-33
218.29,-30
217.32,-17
216.36,-4
215.40,-1
214.43,-19
213.47,-45
212.50,-60
211.54,-58
210.57,-36
209.61,-0
208.65,29
207.68,37
206.72,23
205.75,-9
204.79,-36
203.82,-35
202.86,-22
201.90,-5
200.93,6
199.97,8
199.00,5
198.04,9
197.07,22
196.11,44
195.15,56
194.18,58
193.22,58
192.25,60
191.29,66
190.33,78
189.36,93
188.40,106
187.43,115
186.47,124
185.50,149
184.54,185
183.58,221
182.61,247
181.65,258
180.68,260
179.72,262
178.75,271
177.79,293
176.83,335
175.86,384
174.90,420
173.93,445
172.97,460
172.00,469
171.04,465
170.08,449
169.11,425
168.15,398
167.18,377
166.22,373
165.26,383
164.29,402
163.33,423
162.36,441
161.40,466
160.43,497
159.47,529
158.51,561
157.54,590
156.58,622
155.61,655
154.65,684
153.68,706
152.72,727
151.76,764
150.79,817
149.83,884
148.86,957
147.90,1029
146.93,1105
145.97,1185
145.01,1269
144.04,1355
143.08,1452
142.11,1563
141.15,1685
140.19,1816
139.22,1957
138.26,2103
137.29,2250
136.33,2398
135.36,2546
134.40,2675
133.44,2756
132.47,2820
131.51,2886
130.54,2971
129.58,3078
128.61,3180
127.65,3259
126.69,3308
125.72,3325
124.76,3334
123.79,3346
122.83,3365
121.86,3398
120.90,3451
119.94,3512
118.97,3570
118.01,3624
117.04,3673
116.08,3707
115.11,3747
114.15,3802
113.19,3872
112.22,3954
111.26,4049
110.29,4156
109.33,4273
108.37,4397
107.40,4524
106.44,4647
105.47,4766
104.51,4887
103.54,5014
102.58,5147
101.62,5272
100.65,5399
99.69,5538
98.72,5699
97.76,5869
96.79,6027
95.83,6190
94.87,6369
93.90,6576
92.94,6816
91.97,7074
91.01,7346
90.04,7631
89.08,7929
88.12,8238
87.15,8545
86.19,8852
85.22,9163
84.26,9487
83.30,9815
82.33,10147
81.37,10471
80.40,10771
79.44,11043
78.47,11299
77.51,11544
76.55,11778
