Created As Omnic File,PLAS 199
Raman Shift / cm-1,INT
3418.58,-2
3417.61,1
3416.65,3
3415.68,3
3414.72,2
3413.76,1
3412.79,2
3411.83,1
3410.86,-1
3409.90,-2
3408.94,2
3407.97,5
3407.01,5
3406.04,4
3405.08,5
3404.11,5
3403.15,4
3402.19,4
3401.22,3
3400.26,0
3399.29,1
3398.33,5
3397.36,6
3396.40,1
3395.44,-1
3394.47,2
3393.51,4
3392.54,6
3391.58,7
3390.61,8
3389.65,9
3388.69,7
3387.72,6
3386.76,5
3385.79,-0
3384.83,-3
3383.87,-1
3382.90,4
3381.94,9
3380.97,10
3380.01,5
3379.04,2
3378.08,4
3377.12,5
3376.15,4
3375.19,3
3374.22,4
3373.26,10
3372.29,12
3371.33,4
3370.37,-3
3369.40,-3
3368.44,-2
3367.47,-3
3366.51,-3
3365.54,-1
3364.58,-0
3363.62,-1
3362.65,-0
3361.69,0
3360.72,-2
3359.76,-4
3358.80,-7
3357.83,-7
3356.87,-2
3355.90,2
3354.94,-0
3353.97,-2
3353.01,-3
3352.05,-8
3351.08,-14
3350.12,-11
3349.15,-4
3348.19,-2
3347.22,-5
3346.26,-5
3345.30,-4
3344.33,-0
3343.37,-1
3342.40,-10
3341.44,-15
3340.47,-10
3339.51,-8
3338.55,-14
3337.58,-16
3336.62,-10
3335.65,-7
3334.69,-8
3333.73,-6
3332.76,-4
3331.80,-3
3330.83,-3
3329.87,-5
3328.90,-9
3327.94,-12
3326.98,-12
3326.01,-11
3325.05,-9
3324.08,-5
3323.12,-8
3322.15,-18
3321.19,-16
3320.23,-6
3319.26,-2
3318.30,-0
3317.33,-3
3316.37,-6
3315.40,-6
3314.44,-3
3313.48,-7
3312.51,-11
3311.55,-8
3310.58,-7
3309.62,-8
3308.66,-6
3307.69,-3
3306.73,-4
3305.76,-9
3304.80,-9
3303.83,-5
3302.87,-3
3301.91,-3
3300.94,-4
3299.98,-5
3299.01,-5
3298.05,-3
3297.08,2
3296.12,4
3295.16,1
3294.19,1
3293.23,4
3292.26,6
3291.30,4
3290.33,1
3289.37,2
3288.41,2
3287.44,1
3286.48,0
3285.51,-1
3284.55,-0
3283.59,1
3282.62,2
3281.66,2
3280.69,4
3279.73,7
3278.76,6
3277.80,4
3276.84,2
3275.87,-2
3274.91,-7
3273.94,-7
3272.98,-2
3272.01,0
3271.05,2
3270.09,2
3269.12,-0
3268.16,-1
3267.19,0
3266.23,1
3265.26,3
3264.30,5
3263.34,5
3262.37,5
3261.41,5
3260.44,5
3259.48,5
3258.51,3
3257.55,3
3256.59,4
3255.62,5
3254.66,5
3253.69,3
3252.73,0
3251.77,0
3250.80,2
3249.84,3
3248.87,3
3247.91,0
3246.94,-2
3245.98,3
3245.02,5
3244.05,3
3243.09,1
3242.12,1
3241.16,-2
3240.19,-7
3239.23,-7
3238.27,-0
3237.30,3
3236.34,0
3235.37,-0
3234.41,3
3233.44,3
3232.48,1
3231.52,-1
3230.55,-4
3229.59,-4
3228.62,-3
3227.66,-4
3226.70,-4
3225.73,-5
3224.77,-5
3223.80,-7
3222.84,-7
3221.87,-2
3220.91,0
3219.95,-1
3218.98,-2
3218.02,-3
3217.05,-4
3216.09,-4
3215.12,-1
3214.16,3
3213.20,-2
3212.23,-12
3211.27,-11
3210.30,-7
3209.34,-3
3208.37,-0
3207.41,1
3206.45,1
3205.48,1
3204.52,0
3203.55,-1
3202.59,-1
3201.63,4
3200.66,5
3199.70,2
3198.73,-1
3197.77,-3
3196.80,-3
3195.84,-3
3194.88,-2
3193.91,-2
3192.95,1
3191.98,7
3191.02,7
3190.05,5
3189.09,3
3188.13,1
3187.16,2
3186.20,3
3185.23,3
3184.27,3
3183.30,6
3182.34,8
3181.38,5
3180.41,5
3179.45,9
3178.48,9
3177.52,4
3176.56,3
3175.59,4
3174.63,3
3173.66,1
3172.70,-1
3171.73,-1
3170.77,5
3169.81,12
3168.84,11
3167.88,7
3166.91,4
3165.95,4
3164.98,5
3164.02,5
3163.06,5
3162.09,6
3161.13,7
3160.16,7
3159.20,7
3158.23,5
3157.27,3
3156.31,5
3155.34,7
3154.38,12
3153.41,16
3152.45,11
3151.49,3
3150.52,3
3149.56,9
3148.59,10
3147.63,8
3146.66,6
3145.70,4
3144.74,7
3143.77,9
3142.81,10
3141.84,9
3140.88,5
3139.91,1
3138.95,0
3137.99,2
3137.02,8
3136.06,10
3135.09,3
3134.13,-4
3133.16,-4
3132.20,1
3131.24,7
3130.27,9
3129.31,5
3128.34,4
3127.38,5
3126.42,5
3125.45,6
3124.49,9
3123.52,10
3122.56,7
3121.59,1
3120.63,2
3119.67,7
3118.70,8
3117.74,5
3116.77,3
3115.81,2
3114.84,1
3113.88,2
3112.92,8
3111.95,14
3110.99,15
3110.02,15
3109.06,16
3108.09,15
3107.13,12
3106.17,8
3105.20,7
3104.24,9
3103.27,13
3102.31,17
3101.34,19
3100.38,20
3099.42,21
3098.45,23
3097.49,25
3096.52,26
3095.56,27
3094.60,27
3093.63,26
3092.67,28
3091.70,34
3090.74,37
3089.77,39
3088.81,43
3087.85,47
3086.88,50
3085.92,53
3084.95,56
3083.99,61
3083.02,66
3082.06,69
3081.10,72
3080.13,74
3079.17,77
3078.20,80
3077.24,83
3076.27,89
3075.31,97
3074.35,105
3073.38,111
3072.42,118
3071.45,128
3070.49,140
3069.53,154
3068.56,165
3067.60,175
3066.63,185
3065.67,198
3064.70,209
3063.74,218
3062.78,227
3061.81,236
3060.85,244
3059.88,251
3058.92,256
3057.95,259
3056.99,263
3056.03,265
3055.06,268
3054.10,272
3053.13,273
3052.17,271
3051.20,266
3050.24,258
3049.28,253
3048.31,245
3047.35,231
3046.38,220
3045.42,216
3044.46,210
3043.49,200
3042.53,192
3041.56,187
3040.60,186
3039.63,187
3038.67,188
3037.71,192
3036.74,191
3035.78,186
3034.81,177
3033.85,168
3032.88,161
3031.92,159
3030.96,157
3029.99,151
3029.03,145
3028.06,140
3027.10,133
3026.13,126
3025.17,121
3024.21,117
3023.24,112
3022.28,106
3021.31,99
3020.35,89
3019.39,86
3018.42,89
3017.46,89
3016.49,88
3015.53,91
3014.56,92
3013.60,90
3012.64,87
3011.67,81
3010.71,74
3009.74,71
3008.78,70
3007.81,71
3006.85,72
3005.89,70
3004.92,70
3003.96,70
3002.99,70
3002.03,71
3001.06,72
3000.10,73
2999.14,73
2998.17,73
2997.21,69
2996.24,64
2995.28,61
2994.32,63
2993.35,65
2992.39,63
2991.42,64
2990.46,69
2989.49,74
2988.53,76
2987.57,78
2986.60,80
2985.64,78
2984.67,77
2983.71,79
2982.74,82
2981.78,82
2980.82,83
2979.85,89
2978.89,97
2977.92,102
2976.96,105
2975.99,111
2975.03,117
2974.07,111
2973.10,102
2972.14,103
2971.17,107
2970.21,110
2969.25,115
2968.28,116
2967.32,118
2966.35,123
2965.39,126
2964.42,123
2963.46,121
2962.50,126
2961.53,133
2960.57,137
2959.60,138
2958.64,139
2957.67,140
2956.71,143
2955.75,146
2954.78,145
2953.82,142
2952.85,142
2951.89,144
2950.92,144
2949.96,148
2949.00,158
2948.03,163
2947.07,163
2946.10,163
2945.14,162
2944.17,163
2943.21,168
2942.25,177
2941.28,186
2940.32,195
2939.35,205
2938.39,215
2937.43,227
2936.46,239
2935.50,251
2934.53,269
2933.57,293
2932.60,315
2931.64,331
2930.68,344
2929.71,354
2928.75,368
2927.78,386
2926.82,404
2925.85,419
2924.89,423
2923.93,422
2922.96,418
2922.00,411
2921.03,401
2920.07,387
2919.10,375
2918.14,366
2917.18,358
2916.21,348
2915.25,332
2914.28,312
2913.32,300
2912.36,293
2911.39,284
2910.43,276
2909.46,269
2908.50,264
2907.53,259
2906.57,252
2905.61,242
2904.64,233
2903.68,233
2902.71,239
2901.75,238
2900.78,232
2899.82,222
2898.86,213
2897.89,208
2896.93,207
2895.96,203
2895.00,197
2894.03,191
2893.07,185
2892.11,177
2891.14,171
2890.18,170
2889.21,167
2888.25,164
2887.29,161
2886.32,158
2885.36,159
2884.39,159
2883.43,155
2882.46,149
2881.50,145
2880.54,145
2879.57,149
2878.61,152
2877.64,147
2876.68,138
2875.71,133
2874.75,136
2873.79,141
2872.82,143
2871.86,142
2870.89,139
2869.93,137
2868.96,137
2868.00,139
2867.04,142
2866.07,144
2865.11,145
2864.14,146
2863.18,151
2862.22,155
2861.25,154
2860.29,151
2859.32,151
2858.36,152
2857.39,154
2856.43,151
2855.47,147
2854.50,144
2853.54,143
2852.57,138
2851.61,131
2850.64,122
2849.68,116
2848.72,111
2847.75,104
2846.79,96
2845.82,90
2844.86,85
2843.89,81
2842.93,74
2841.97,64
2841.00,57
2840.04,55
2839.07,52
2838.11,47
2837.15,39
2836.18,30
2835.22,24
2834.25,19
2833.29,15
2832.32,12
2831.36,14
2830.40,19
2829.43,21
2828.47,19
2827.50,17
2826.54,15
2825.57,11
2824.61,2
2823.65,-2
2822.68,4
2821.72,12
2820.75,13
2819.79,12
2818.82,12
2817.86,9
2816.90,5
2815.93,2
2814.97,4
2814.00,7
2813.04,10
2812.08,6
2811.11,0
2810.15,-1
2809.18,5
2808.22,9
2807.25,5
2806.29,-1
2805.33,-3
2804.36,-4
2803.40,-3
2802.43,-3
2801.47,-3
2800.50,-2
2799.54,-1
2798.58,1
2797.61,1
2796.65,0
2795.68,-3
2794.72,-4
2793.75,-2
2792.79,-1
2791.83,-3
2790.86,-6
2789.90,-11
2788.93,-12
2787.97,-10
2787.00,-6
2786.04,-3
2785.08,-1
2784.11,-1
2783.15,-3
2782.18,-6
2781.22,-9
2780.26,-10
2779.29,-10
2778.33,-8
2777.36,-7
2776.40,-9
2775.43,-11
2774.47,-9
2773.51,-5
2772.54,-4
2771.58,-6
2770.61,-7
2769.65,-10
2768.68,-12
2767.72,-10
2766.76,-8
2765.79,-8
2764.83,-9
2763.86,-9
2762.90,-6
2761.93,-4
2760.97,-7
2760.01,-10
2759.04,-9
2758.08,-6
2757.11,-4
2756.15,-4
2755.19,-7
2754.22,-9
2753.26,-7
2752.29,-2
2751.33,3
2750.36,7
2749.40,11
2748.44,13
2747.47,5
2746.51,-6
2745.54,-8
2744.58,-5
2743.61,-1
2742.65,5
2741.69,11
2740.72,14
2739.76,12
2738.79,9
2737.83,8
2736.86,10
2735.90,9
2734.94,9
2733.97,14
2733.01,19
2732.04,15
2731.08,7
2730.12,3
2729.15,2
2728.19,4
2727.22,7
2726.26,9
2725.29,8
2724.33,3
2723.37,-3
2722.40,-5
2721.44,-5
2720.47,-9
2719.51,-15
2718.54,-10
2717.58,-0
2716.62,7
2715.65,8
2714.69,5
2713.72,0
2712.76,-4
2711.79,-5
2710.83,-3
2709.87,1
2708.90,2
2707.94,-5
2706.97,-7
2706.01,-3
2705.05,-4
2704.08,-9
2703.12,-6
2702.15,2
2701.19,5
2700.22,-2
2699.26,-7
2698.30,-7
2697.33,-5
2696.37,-5
2695.40,-5
2694.44,-4
2693.47,-5
2692.51,-5
2691.55,-5
2690.58,-4
2689.62,-2
2688.65,-2
2687.69,-3
2686.72,-6
2685.76,-5
2684.80,-2
2683.83,-0
2682.87,-3
2681.90,-7
2680.94,-10
2679.98,-10
2679.01,-8
2678.05,-5
2677.08,-1
2676.12,1
2675.15,-3
2674.19,-10
2673.23,-13
2672.26,-12
2671.30,-9
2670.33,-4
2669.37,-5
2668.40,-7
2667.44,-8
2666.48,-6
2665.51,-4
2664.55,-2
2663.58,0
2662.62,0
2661.65,-4
2660.69,-11
2659.73,-11
2658.76,-4
2657.80,0
2656.83,1
2655.87,4
2654.91,7
2653.94,7
2652.98,5
2652.01,1
2651.05,-6
2650.08,-7
2649.12,-0
2648.16,2
2647.19,-0
2646.23,-1
2645.26,1
2644.30,1
2643.33,-3
2642.37,-1
2641.41,8
2640.44,13
2639.48,6
2638.51,-1
2637.55,-0
2636.58,4
2635.62,5
2634.66,3
2633.69,-3
2632.73,-9
2631.76,-8
2630.80,-5
2629.83,-3
2628.87,-1
2627.91,3
2626.94,4
2625.98,4
2625.01,4
2624.05,-2
2623.09,-7
2622.12,-4
2621.16,-0
2620.19,2
2619.23,4
2618.26,1
2617.30,-4
2616.34,-1
2615.37,6
2614.41,8
2613.44,5
2612.48,0
2611.51,-4
2610.55,-5
2609.59,-1
2608.62,1
2607.66,1
2606.69,-0
2605.73,-1
2604.76,0
2603.80,3
2602.84,6
2601.87,7
2600.91,5
2599.94,0
2598.98,-4
2598.02,-4
2597.05,-4
2596.09,-3
2595.12,-1
2594.16,-0
2593.19,-1
2592.23,-1
2591.27,-1
2590.30,-1
2589.34,-1
2588.37,-2
2587.41,-4
2586.44,-3
2585.48,-1
2584.52,-2
2583.55,-5
2582.59,-10
2581.62,-11
2580.66,-7
2579.69,-0
2578.73,2
2577.77,-1
2576.80,-6
2575.84,-9
2574.87,-10
2573.91,-9
2572.95,-6
2571.98,-4
2571.02,-6
2570.05,-9
2569.09,-7
2568.12,-2
2567.16,2
2566.20,-1
2565.23,-5
2564.27,-5
2563.30,-4
2562.34,-6
2561.37,-5
2560.41,1
2559.45,3
2558.48,-2
2557.52,-8
2556.55,-9
2555.59,-8
2554.62,-4
2553.66,-2
2552.70,-2
2551.73,-4
2550.77,-9
2549.80,-16
2548.84,-18
2547.88,-16
2546.91,-11
2545.95,-7
2544.98,-6
2544.02,-5
2543.05,-5
2542.09,-8
2541.13,-10
2540.16,-8
2539.20,-7
2538.23,-6
2537.27,-3
2536.30,-2
2535.34,-3
2534.38,-2
2533.41,0
2532.45,-1
2531.48,-2
2530.52,-2
2529.55,-4
2528.59,-6
2527.63,-5
2526.66,-3
2525.70,-1
2524.73,-1
2523.77,-3
2522.81,-7
2521.84,-8
2520.88,-6
2519.91,-3
2518.95,-1
2517.98,-5
2517.02,-8
2516.06,-6
2515.09,-2
2514.13,3
2513.16,8
2512.20,6
2511.23,2
2510.27,0
2509.31,-1
2508.34,-5
2507.38,-3
2506.41,5
2505.45,9
2504.48,7
2503.52,6
2502.56,8
2501.59,12
2500.63,13
2499.66,12
2498.70,12
2497.74,14
2496.77,18
2495.81,22
2494.84,18
2493.88,7
2492.91,3
2491.95,3
2490.99,4
2490.02,6
2489.06,10
2488.09,13
2487.13,11
2486.16,3
2485.20,-3
2484.24,0
2483.27,7
2482.31,13
2481.34,17
2480.38,18
2479.41,15
2478.45,9
2477.49,5
2476.52,5
2475.56,6
2474.59,2
2473.63,-1
2472.66,0
2471.70,2
2470.74,-0
2469.77,-5
2468.81,0
2467.84,11
2466.88,13
2465.92,7
2464.95,2
2463.99,-2
2463.02,-6
2462.06,-9
2461.09,-10
2460.13,-6
2459.17,-4
2458.20,-7
2457.24,-10
2456.27,-7
2455.31,-3
2454.34,-6
2453.38,-7
2452.42,-1
2451.45,2
2450.49,-3
2449.52,-9
2448.56,-11
2447.59,-9
2446.63,-7
2445.67,-5
2444.70,-4
2443.74,-3
2442.77,2
2441.81,7
2440.85,7
2439.88,4
2438.92,1
2437.95,-0
2436.99,-1
2436.02,-4
2435.06,-6
2434.10,-5
2433.13,-4
2432.17,-5
2431.20,-7
2430.24,-4
2429.27,-0
2428.31,-0
2427.35,-2
2426.38,-6
2425.42,-10
2424.45,-15
2423.49,-17
2422.52,-16
2421.56,-12
2420.60,-7
2419.63,-5
2418.67,-5
2417.70,-6
2416.74,-6
2415.78,-5
2414.81,-9
2413.85,-19
2412.88,-26
2411.92,-23
2410.95,-14
2409.99,-4
2409.03,-1
2408.06,-7
2407.10,-15
2406.13,-20
2405.17,-17
2404.20,-13
2403.24,-9
2402.28,-5
2401.31,-4
2400.35,-4
2399.38,-3
2398.42,-3
2397.45,-7
2396.49,-10
2395.53,-9
2394.56,-9
2393.60,-10
2392.63,-10
2391.67,-12
2390.71,-12
2389.74,-6
2388.78,2
2387.81,8
2386.85,9
2385.88,7
2384.92,2
2383.96,-2
2382.99,-6
2382.03,-8
2381.06,-5
2380.10,0
2379.13,4
2378.17,8
2377.21,11
2376.24,11
2375.28,7
2374.31,2
2373.35,-0
2372.38,-1
2371.42,-3
2370.46,-5
2369.49,-5
2368.53,-5
2367.56,-3
2366.60,0
2365.64,4
2364.67,4
2363.71,1
2362.74,-4
2361.78,-5
2360.81,-5
2359.85,-4
2358.89,-5
2357.92,-8
2356.96,-13
2355.99,-14
2355.03,-13
2354.06,-11
2353.10,-7
2352.14,-5
2351.17,-4
2350.21,-1
2349.24,-2
2348.28,-4
2347.31,-1
2346.35,4
2345.39,1
2344.42,-6
2343.46,-11
2342.49,-12
2341.53,-12
2340.57,-11
2339.60,-7
2338.64,0
2337.67,7
2336.71,6
2335.74,1
2334.78,-2
2333.82,-4
2332.85,-9
2331.89,-14
2330.92,-14
2329.96,-9
2328.99,-2
2328.03,3
2327.07,8
2326.10,13
2325.14,14
2324.17,6
2323.21,-1
2322.24,-3
2321.28,-5
2320.32,-5
2319.35,-3
2318.39,-1
2317.42,-0
2316.46,2
2315.49,4
2314.53,6
2313.57,7
2312.60,8
2311.64,7
2310.67,4
2309.71,-1
2308.75,-2
2307.78,0
2306.82,2
2305.85,-0
2304.89,-1
2303.92,2
2302.96,6
2302.00,6
2301.03,3
2300.07,4
2299.10,10
2298.14,10
2297.17,6
2296.21,6
2295.25,7
2294.28,3
2293.32,0
2292.35,3
2291.39,10
2290.42,13
2289.46,10
2288.50,4
2287.53,-2
2286.57,-4
2285.60,1
2284.64,6
2283.68,7
2282.71,6
2281.75,8
2280.78,13
2279.82,15
2278.85,13
2277.89,12
2276.93,13
2275.96,16
2275.00,16
2274.03,16
2273.07,16
2272.10,17
2271.14,15
2270.18,13
2269.21,12
2268.25,10
2267.28,10
2266.32,12
2265.35,11
2264.39,10
2263.43,7
2262.46,4
2261.50,5
2260.53,17
2259.57,28
2258.61,26
2257.64,17
2256.68,8
2255.71,2
2254.75,-0
2253.78,3
2252.82,8
2251.86,11
2250.89,11
2249.93,9
2248.96,11
2248.00,15
2247.03,12
2246.07,1
2245.11,-4
2244.14,-1
2243.18,3
2242.21,4
2241.25,2
2240.28,0
2239.32,0
2238.36,2
2237.39,2
2236.43,-1
2235.46,-9
2234.50,-15
2233.54,-15
2232.57,-11
2231.61,-7
2230.64,-4
2229.68,-4
2228.71,-8
2227.75,-12
2226.79,-13
2225.82,-12
2224.86,-10
2223.89,-9
2222.93,-7
2221.96,-4
2221.00,-1
2220.04,-2
2219.07,-10
2218.11,-19
2217.14,-21
2216.18,-17
2215.21,-9
2214.25,-1
2213.29,-0
2212.32,-5
2211.36,-7
2210.39,-5
2209.43,-4
2208.47,-7
2207.50,-9
2206.54,-10
2205.57,-10
2204.61,-10
2203.64,-4
2202.68,3
2201.72,7
2200.75,7
2199.79,7
2198.82,6
2197.86,4
2196.89,-0
2195.93,-5
2194.97,-8
2194.00,-7
2193.04,-8
2192.07,-10
2191.11,-7
2190.14,0
2189.18,7
2188.22,14
2187.25,18
2186.29,18
2185.32,17
2184.36,14
2183.40,9
2182.43,3
2181.47,-2
2180.50,-4
2179.54,-0
2178.57,4
2177.61,7
2176.65,6
2175.68,-0
2174.72,-4
2173.75,0
2172.79,5
2171.82,4
2170.86,2
2169.90,1
2168.93,1
2167.97,4
2167.00,7
2166.04,6
2165.07,1
2164.11,-0
2163.15,5
2162.18,9
2161.22,5
2160.25,1
2159.29,2
2158.32,4
2157.36,3
2156.40,-2
2155.43,-6
2154.47,-8
2153.50,-8
2152.54,-5
2151.58,-1
2150.61,3
2149.65,4
2148.68,2
2147.72,-1
2146.75,-4
2145.79,-6
2144.83,-2
2143.86,3
2142.90,1
2141.93,-5
2140.97,-10
2140.00,-10
2139.04,-9
2138.08,-9
2137.11,-9
2136.15,-9
2135.18,-12
2134.22,-14
2133.25,-11
2132.29,-5
2131.33,-1
2130.36,-5
2129.40,-14
2128.43,-19
2127.47,-15
2126.51,-10
2125.54,-9
2124.58,-9
2123.61,-9
2122.65,-10
2121.68,-11
2120.72,-11
2119.76,-12
2118.79,-13
2117.83,-11
2116.86,-9
2115.90,-11
2114.93,-16
2113.97,-16
2113.01,-11
2112.04,-6
2111.08,-9
2110.11,-15
2109.15,-14
2108.18,-12
2107.22,-13
2106.26,-14
2105.29,-14
2104.33,-14
2103.36,-10
2102.40,-6
2101.44,-2
2100.47,2
2099.51,1
2098.54,-4
2097.58,-12
2096.61,-13
2095.65,-13
2094.69,-15
2093.72,-18
2092.76,-18
2091.79,-14
2090.83,-11
2089.86,-13
2088.90,-15
2087.94,-14
2086.97,-13
2086.01,-11
2085.04,-8
2084.08,-6
2083.11,-5
2082.15,-3
2081.19,-2
2080.22,-3
2079.26,-3
2078.29,-2
2077.33,1
2076.37,0
2075.40,-4
2074.44,-7
2073.47,-3
2072.51,1
2071.54,-2
2070.58,-12
2069.62,-14
2068.65,-6
2067.69,1
2066.72,-0
2065.76,0
2064.79,7
2063.83,12
2062.87,11
2061.90,7
2060.94,3
2059.97,0
2059.01,2
2058.04,5
2057.08,4
2056.12,-4
2055.15,-8
2054.19,-1
2053.22,9
2052.26,6
2051.30,-3
2050.33,-6
2049.37,-5
2048.40,-2
2047.44,5
2046.47,8
2045.51,6
2044.55,4
2043.58,4
2042.62,5
2041.65,7
2040.69,9
2039.72,11
2038.76,9
2037.80,5
2036.83,0
2035.87,-2
2034.90,-1
2033.94,1
2032.97,2
2032.01,2
2031.05,1
2030.08,-3
2029.12,-9
2028.15,-15
2027.19,-17
2026.23,-13
2025.26,-8
2024.30,-4
2023.33,-2
2022.37,-3
2021.40,-3
2020.44,-1
2019.48,-1
2018.51,-3
2017.55,-6
2016.58,-6
2015.62,-6
2014.65,-11
2013.69,-19
2012.73,-18
2011.76,-4
2010.80,9
2009.83,10
2008.87,6
2007.90,3
2006.94,-1
2005.98,-6
2005.01,-12
2004.05,-16
2003.08,-16
2002.12,-15
2001.15,-15
2000.19,-12
1999.23,-6
1998.26,-2
1997.30,-7
1996.33,-15
1995.37,-18
1994.41,-19
1993.44,-15
1992.48,-9
1991.51,-8
1990.55,-11
1989.58,-14
1988.62,-13
1987.66,-8
1986.69,1
1985.73,7
1984.76,6
1983.80,2
1982.83,2
1981.87,5
1980.91,7
1979.94,6
1978.98,-1
1978.01,-8
1977.05,-8
1976.08,1
1975.12,10
1974.16,10
1973.19,4
1972.23,0
1971.26,4
1970.30,10
1969.34,12
1968.37,10
1967.41,9
1966.44,8
1965.48,6
1964.51,5
1963.55,5
1962.59,4
1961.62,4
1960.66,2
1959.69,-2
1958.73,-6
1957.76,-6
1956.80,-3
1955.84,1
1954.87,5
1953.91,7
1952.94,9
1951.98,13
1951.01,11
1950.05,4
1949.09,2
1948.12,6
1947.16,10
1946.19,10
1945.23,7
1944.27,4
1943.30,3
1942.34,5
1941.37,10
1940.41,12
1939.44,10
1938.48,6
1937.52,0
1936.55,-4
1935.59,-5
1934.62,-2
1933.66,-0
1932.69,0
1931.73,2
1930.77,3
1929.80,3
1928.84,-0
1927.87,-1
1926.91,2
1925.94,6
1924.98,6
1924.02,4
1923.05,5
1922.09,7
1921.12,5
1920.16,0
1919.20,-2
1918.23,1
1917.27,6
1916.30,8
1915.34,6
1914.37,-1
1913.41,-9
1912.45,-11
1911.48,-7
1910.52,-2
1909.55,-1
1908.59,-2
1907.62,-2
1906.66,-3
1905.70,-7
1904.73,-10
1903.77,-11
1902.80,-11
1901.84,-10
1900.87,-8
1899.91,-7
1898.95,-5
1897.98,1
1897.02,4
1896.05,6
1895.09,9
1894.13,9
1893.16,5
1892.20,2
1891.23,-0
1890.27,-0
1889.30,-0
1888.34,-1
1887.38,1
1886.41,4
1885.45,7
1884.48,9
1883.52,8
1882.55,3
1881.59,-0
1880.63,-1
1879.66,-1
1878.70,-1
1877.73,2
1876.77,5
1875.80,5
1874.84,6
1873.88,11
1872.91,18
1871.95,20
1870.98,15
1870.02,6
1869.06,5
1868.09,12
1867.13,16
1866.16,14
1865.20,13
1864.23,13
1863.27,13
1862.31,13
1861.34,13
1860.38,13
1859.41,12
1858.45,10
1857.48,7
1856.52,6
1855.56,4
1854.59,4
1853.63,7
1852.66,11
1851.70,14
1850.73,13
1849.77,6
1848.81,0
1847.84,2
1846.88,8
1845.91,11
1844.95,10
1843.98,8
1843.02,11
1842.06,14
1841.09,13
1840.13,5
1839.16,-3
1838.20,-4
1837.24,-3
1836.27,-3
1835.31,0
1834.34,3
1833.38,4
1832.41,6
1831.45,7
1830.49,3
1829.52,-4
1828.56,-9
1827.59,-13
1826.63,-15
1825.66,-9
1824.70,0
1823.74,3
1822.77,1
1821.81,0
1820.84,-0
1819.88,-6
1818.91,-12
1817.95,-14
1816.99,-11
1816.02,-10
1815.06,-10
1814.09,-11
1813.13,-12
1812.17,-13
1811.20,-10
1810.24,0
1809.27,6
1808.31,3
1807.34,-1
1806.38,1
1805.42,4
1804.45,2
1803.49,-2
1802.52,-6
1801.56,-10
1800.59,-11
1799.63,-4
1798.67,4
1797.70,4
1796.74,-0
1795.77,-3
1794.81,-7
1793.84,-8
1792.88,-6
1791.92,-2
1790.95,0
1789.99,2
1789.02,0
1788.06,-4
1787.10,-10
1786.13,-13
1785.17,-10
1784.20,-1
1783.24,11
1782.27,15
1781.31,12
1780.35,12
1779.38,14
1778.42,12
1777.45,8
1776.49,9
1775.52,12
1774.56,11
1773.60,7
1772.63,1
1771.67,-3
1770.70,-4
1769.74,1
1768.77,8
1767.81,10
1766.85,4
1765.88,-4
1764.92,-5
1763.95,-1
1762.99,6
1762.03,15
1761.06,19
1760.10,20
1759.13,16
1758.17,7
1757.20,-4
1756.24,-10
1755.28,-8
1754.31,-2
1753.35,5
1752.38,11
1751.42,10
1750.45,5
1749.49,-1
1748.53,-4
1747.56,-1
1746.60,3
1745.63,7
1744.67,10
1743.70,10
1742.74,10
1741.78,11
1740.81,16
1739.85,19
1738.88,18
1737.92,14
1736.96,8
1735.99,3
1735.03,1
1734.06,0
1733.10,1
1732.13,4
1731.17,6
1730.21,5
1729.24,6
1728.28,10
1727.31,13
1726.35,12
1725.38,4
1724.42,-6
1723.46,-13
1722.49,-15
1721.53,-10
1720.56,-1
1719.60,5
1718.63,3
1717.67,0
1716.71,1
1715.74,0
1714.78,-6
1713.81,-14
1712.85,-16
1711.89,-12
1710.92,-7
1709.96,-3
1708.99,-0
1708.03,-7
1707.06,-16
1706.10,-17
1705.14,-14
1704.17,-9
1703.21,-4
1702.24,-4
1701.28,-7
1700.31,-7
1699.35,-4
1698.39,-2
1697.42,-4
1696.46,-10
1695.49,-15
1694.53,-13
1693.56,-6
1692.60,-2
1691.64,-0
1690.67,0
1689.71,-1
1688.74,-1
1687.78,4
1686.81,4
1685.85,-2
1684.89,-10
1683.92,-16
1682.96,-22
1681.99,-28
1681.03,-31
1680.07,-27
1679.10,-16
1678.14,-6
1677.17,-4
1676.21,-6
1675.24,-4
1674.28,2
1673.32,4
1672.35,0
1671.39,-5
1670.42,-10
1669.46,-18
1668.49,-23
1667.53,-22
1666.57,-16
1665.60,-10
1664.64,-7
1663.67,-8
1662.71,-14
1661.74,-20
1660.78,-19
1659.82,-17
1658.85,-15
1657.89,-13
1656.92,-15
1655.96,-15
1655.00,-9
1654.03,-5
1653.07,-8
1652.10,-12
1651.14,-9
1650.17,-1
1649.21,4
1648.25,5
1647.28,3
1646.32,3
1645.35,4
1644.39,2
1643.42,-0
1642.46,-0
1641.50,1
1640.53,0
1639.57,0
1638.60,2
1637.64,3
1636.67,5
1635.71,9
1634.75,15
1633.78,18
1632.82,16
1631.85,15
1630.89,20
1629.93,25
1628.96,25
1628.00,23
1627.03,21
1626.07,23
1625.10,30
1624.14,40
1623.18,50
1622.21,56
1621.25,58
1620.28,62
1619.32,69
1618.35,76
1617.39,82
1616.43,91
1615.46,100
1614.50,109
1613.53,125
1612.57,141
1611.60,148
1610.64,153
1609.68,162
1608.71,177
1607.75,196
1606.78,214
1605.82,232
1604.86,251
1603.89,273
1602.93,291
1601.96,299
1601.00,299
1600.03,294
1599.07,287
1598.11,277
1597.14,266
1596.18,260
1595.21,256
1594.25,248
1593.28,232
1592.32,211
1591.36,192
1590.39,180
1589.43,174
1588.46,170
1587.50,166
1586.53,163
1585.57,160
1584.61,155
1583.64,147
1582.68,140
1581.71,135
1580.75,127
1579.79,117
1578.82,111
1577.86,113
1576.89,116
1575.93,115
1574.96,110
1574.00,100
1573.04,87
1572.07,76
1571.11,70
1570.14,68
1569.18,72
1568.21,78
1567.25,73
1566.29,58
1565.32,44
1564.36,38
1563.39,38
1562.43,43
1561.46,49
1560.50,51
1559.54,49
1558.57,48
1557.61,49
1556.64,49
1555.68,50
1554.72,50
1553.75,49
1552.79,50
1551.82,50
1550.86,48
1549.89,45
1548.93,42
1547.97,37
1547.00,33
1546.04,33
1545.07,29
1544.11,22
1543.14,19
1542.18,20
1541.22,22
1540.25,20
1539.29,16
1538.32,11
1537.36,6
1536.39,5
1535.43,9
1534.47,15
1533.50,21
1532.54,28
1531.57,32
1530.61,32
1529.64,27
1528.68,22
1527.72,19
1526.75,17
1525.79,15
1524.82,17
1523.86,20
1522.90,19
1521.93,10
1520.97,0
1520.00,1
1519.04,10
1518.07,15
1517.11,12
1516.15,8
1515.18,6
1514.22,4
1513.25,-0
1512.29,-5
1511.32,-4
1510.36,1
1509.40,4
1508.43,1
1507.47,2
1506.50,3
1505.54,2
1504.57,1
1503.61,0
1502.65,-0
1501.68,1
1500.72,4
1499.75,5
1498.79,1
1497.83,-4
1496.86,-5
1495.90,1
1494.93,11
1493.97,13
1493.00,4
1492.04,-7
1491.08,-12
1490.11,-9
1489.15,0
1488.18,10
1487.22,15
1486.25,13
1485.29,9
1484.33,8
1483.36,9
1482.40,8
1481.43,5
1480.47,5
1479.50,9
1478.54,16
1477.58,20
1476.61,19
1475.65,16
1474.68,11
1473.72,5
1472.76,0
1471.79,-4
1470.83,-9
1469.86,-9
1468.90,-2
1467.93,12
1466.97,22
1466.01,21
1465.04,12
1464.08,5
1463.11,8
1462.15,14
1461.18,14
1460.22,8
1459.26,2
1458.29,1
1457.33,9
1456.36,21
1455.40,28
1454.43,27
1453.47,20
1452.51,15
1451.54,17
1450.58,25
1449.61,34
1448.65,42
1447.69,37
1446.72,23
1445.76,12
1444.79,9
1443.83,10
1442.86,12
1441.90,15
1440.94,18
1439.97,15
1439.01,4
1438.04,-7
1437.08,-11
1436.11,-10
1435.15,-6
1434.19,-0
1433.22,3
1432.26,2
1431.29,-6
1430.33,-16
1429.36,-23
1428.40,-24
1427.44,-20
1426.47,-12
1425.51,-7
1424.54,-11
1423.58,-19
1422.62,-24
1421.65,-23
1420.69,-19
1419.72,-15
1418.76,-15
1417.79,-19
1416.83,-25
1415.87,-23
1414.90,-18
1413.94,-19
1412.97,-20
1412.01,-17
1411.04,-16
1410.08,-17
1409.12,-23
1408.15,-29
1407.19,-31
1406.22,-25
1405.26,-18
1404.29,-16
1403.33,-19
1402.37,-19
1401.40,-18
1400.44,-15
1399.47,-7
1398.51,-1
1397.55,-2
1396.58,-9
1395.62,-10
1394.65,-6
1393.69,-0
1392.72,8
1391.76,13
1390.80,12
1389.83,7
1388.87,5
1387.90,8
1386.94,15
1385.97,24
1385.01,32
1384.05,42
1383.08,60
1382.12,79
1381.15,96
1380.19,104
1379.22,104
1378.26,100
1377.30,95
1376.33,90
1375.37,79
1374.40,63
1373.44,49
1372.47,44
1371.51,40
1370.55,33
1369.58,23
1368.62,14
1367.65,10
1366.69,12
1365.73,18
1364.76,23
1363.80,24
1362.83,24
1361.87,25
1360.90,27
1359.94,33
1358.98,36
1358.01,33
1357.05,26
1356.08,19
1355.12,16
1354.15,15
1353.19,18
1352.23,24
1351.26,28
1350.30,21
1349.33,13
1348.37,9
1347.40,10
1346.44,12
1345.48,14
1344.51,14
1343.55,13
1342.58,12
1341.62,9
1340.66,7
1339.69,6
1338.73,8
1337.76,9
1336.80,3
1335.83,-8
1334.87,-14
1333.91,-9
1332.94,-0
1331.98,-1
1331.01,-6
1330.05,0
1329.08,13
1328.12,22
1327.16,24
1326.19,20
1325.23,15
1324.26,11
1323.30,10
1322.33,15
1321.37,19
1320.41,16
1319.44,10
1318.48,7
1317.51,9
1316.55,11
1315.59,10
1314.62,14
1313.66,28
1312.69,44
1311.73,49
1310.76,45
1309.80,46
1308.84,58
1307.87,76
1306.91,93
1305.94,108
1304.98,127
1304.01,149
1303.05,166
1302.09,172
1301.12,170
1300.16,159
1299.19,142
1298.23,126
1297.26,111
1296.30,92
1295.34,71
1294.37,51
1293.41,37
1292.44,27
1291.48,18
1290.52,9
1289.55,4
1288.59,1
1287.62,-1
1286.66,-0
1285.69,-3
1284.73,-10
1283.77,-17
1282.80,-20
1281.84,-25
1280.87,-24
1279.91,-17
1278.94,-8
1277.98,0
1277.02,4
1276.05,6
1275.09,4
1274.12,-2
1273.16,-5
1272.19,-4
1271.23,-0
1270.27,2
1269.30,3
1268.34,-2
1267.37,-12
1266.41,-21
1265.45,-24
1264.48,-20
1263.52,-14
1262.55,-13
1261.59,-15
1260.62,-17
1259.66,-16
1258.70,-13
1257.73,-7
1256.77,-0
1255.80,6
1254.84,7
1253.87,-1
1252.91,-13
1251.95,-23
1250.98,-30
1250.02,-34
1249.05,-36
1248.09,-35
1247.12,-32
1246.16,-30
1245.20,-26
1244.23,-19
1243.27,-12
1242.30,-10
1241.34,-12
1240.38,-14
1239.41,-13
1238.45,-11
1237.48,-8
1236.52,0
1235.55,5
1234.59,4
1233.63,4
1232.66,4
1231.70,3
1230.73,-2
1229.77,-7
1228.80,-10
1227.84,-7
1226.88,-4
1225.91,-1
1224.95,0
1223.98,2
1223.02,2
1222.05,4
1221.09,8
1220.13,15
1219.16,21
1218.20,22
1217.23,19
1216.27,16
1215.30,12
1214.34,8
1213.38,4
1212.41,1
1211.45,1
1210.48,4
1209.52,13
1208.56,26
1207.59,33
1206.63,34
1205.66,38
1204.70,51
1203.73,67
1202.77,76
1201.81,82
1200.84,89
1199.88,95
1198.91,88
1197.95,75
1196.98,68
1196.02,72
1195.06,81
1194.09,85
1193.13,78
1192.16,68
1191.20,61
1190.23,58
1189.27,62
1188.31,68
1187.34,71
1186.38,71
1185.41,71
1184.45,75
1183.49,82
1182.52,82
1181.56,76
1180.59,68
1179.63,61
1178.66,55
1177.70,50
1176.74,45
1175.77,36
1174.81,27
1173.84,18
1172.88,13
1171.91,13
1170.95,9
1169.99,-0
1169.02,-10
1168.06,-10
1167.09,-4
1166.13,-1
1165.16,-1
1164.20,0
1163.24,1
1162.27,3
1161.31,8
1160.34,17
1159.38,26
1158.42,28
1157.45,28
1156.49,32
1155.52,38
1154.56,38
1153.59,28
1152.63,16
1151.67,8
1150.70,3
1149.74,-6
1148.77,-15
1147.81,-14
1146.84,-4
1145.88,6
1144.92,8
1143.95,1
1142.99,-5
1142.02,-3
1141.06,2
1140.09,-0
1139.13,-8
1138.17,-14
1137.20,-16
1136.24,-17
1135.27,-20
1134.31,-21
1133.35,-22
1132.38,-25
1131.42,-26
1130.45,-22
1129.49,-15
1128.52,-7
1127.56,-1
1126.60,-1
1125.63,-4
1124.67,-4
1123.70,1
1122.74,7
1121.77,10
1120.81,10
1119.85,7
1118.88,5
1117.92,4
1116.95,11
1115.99,22
1115.02,33
1114.06,44
1113.10,54
1112.13,62
1111.17,65
1110.20,63
1109.24,57
1108.28,52
1107.31,46
1106.35,38
1105.38,27
1104.42,11
1103.45,-5
1102.49,-14
1101.53,-14
1100.56,-12
1099.60,-5
1098.63,5
1097.67,11
1096.70,10
1095.74,3
1094.78,-8
1093.81,-19
1092.85,-22
1091.88,-15
1090.92,-5
1089.95,5
1088.99,9
1088.03,8
1087.06,6
1086.10,3
1085.13,0
1084.17,0
1083.21,3
1082.24,3
1081.28,0
1080.31,-5
1079.35,-8
1078.38,-10
1077.42,-12
1076.46,-14
1075.49,-13
1074.53,-9
1073.56,-4
1072.60,-4
1071.63,-7
1070.67,-13
1069.71,-17
1068.74,-19
1067.78,-14
1066.81,-4
1065.85,3
1064.88,5
1063.92,1
1062.96,-4
1061.99,-8
1061.03,-10
1060.06,-7
1059.10,-1
1058.13,2
1057.17,3
1056.21,3
1055.24,2
1054.28,-3
1053.31,-3
1052.35,6
1051.39,12
1050.42,15
1049.46,15
1048.49,12
1047.53,9
1046.56,7
1045.60,10
1044.64,16
1043.67,24
1042.71,30
1041.74,33
1040.78,34
1039.81,39
1038.85,49
1037.89,60
1036.92,68
1035.96,76
1034.99,82
1034.03,85
1033.06,86
1032.10,89
1031.14,98
1030.17,104
1029.21,104
1028.24,102
1027.28,99
1026.32,93
1025.35,83
1024.39,73
1023.42,66
1022.46,63
1021.49,62
1020.53,61
1019.57,58
1018.60,55
1017.64,54
1016.67,56
1015.71,54
1014.74,50
1013.78,47
1012.82,43
1011.85,41
1010.89,42
1009.92,49
1008.96,63
1007.99,85
1007.03,115
1006.07,151
1005.10,193
1004.14,240
1003.17,294
1002.21,345
1001.25,369
1000.28,373
999.32,346
998.35,296
997.39,240
996.42,184
995.46,136
994.50,105
993.53,94
992.57,84
991.60,70
990.64,60
989.67,55
988.71,54
987.75,53
986.78,47
985.82,38
984.85,31
983.89,25
982.92,20
981.96,19
981.00,18
980.03,15
979.07,11
978.10,8
977.14,6
976.18,4
975.21,2
974.25,0
973.28,0
972.32,2
971.35,7
970.39,17
969.43,30
968.46,40
967.50,42
966.53,37
965.57,30
964.60,26
963.64,30
962.68,38
961.71,49
960.75,59
959.78,63
958.82,58
957.85,47
956.89,36
955.93,28
954.96,21
954.00,14
953.03,9
952.07,6
951.11,3
950.14,2
949.18,2
948.21,0
947.25,-3
946.28,-6
945.32,-12
944.36,-21
943.39,-34
942.43,-44
941.46,-44
940.50,-38
939.53,-31
938.57,-26
937.61,-20
936.64,-13
935.68,-8
934.71,-10
933.75,-12
932.78,-8
931.82,0
930.86,7
929.89,9
928.93,8
927.96,5
927.00,2
926.04,-2
925.07,-5
924.11,-8
923.14,-8
922.18,-5
921.21,0
920.25,9
919.29,17
918.32,15
917.36,6
916.39,-4
915.43,-5
914.46,-0
913.50,2
912.54,-1
911.57,-4
910.61,-3
909.64,-0
908.68,3
907.71,4
906.75,4
905.79,-0
904.82,-6
903.86,-8
902.89,-2
901.93,8
900.96,13
900.00,10
899.04,5
898.07,-4
897.11,-13
896.14,-18
895.18,-17
894.22,-6
893.25,15
892.29,30
891.32,36
890.36,40
889.39,49
888.43,62
887.47,74
886.50,80
885.54,84
884.57,84
883.61,81
882.64,76
881.68,71
880.72,61
879.75,48
878.79,39
877.82,33
876.86,30
875.89,30
874.93,34
873.97,39
873.00,42
872.04,51
871.07,63
870.11,69
869.15,66
868.18,59
867.22,55
866.25,52
865.29,46
864.32,44
863.36,48
862.40,52
861.43,52
860.47,48
859.50,39
858.54,26
857.57,14
856.61,5
855.65,0
854.68,-0
853.72,5
852.75,14
851.79,21
850.82,24
849.86,26
848.90,27
847.93,26
846.97,22
846.00,27
845.04,32
844.08,27
843.11,18
842.15,14
841.18,23
840.22,42
839.25,57
838.29,62
837.33,56
836.36,31
835.40,-4
834.43,-20
833.47,23
832.50,88
831.54,108
830.58,113
829.61,113
828.65,104
827.68,85
826.72,69
825.75,55
824.79,42
823.83,31
822.86,24
821.90,21
820.93,19
819.97,14
819.01,6
818.04,-1
817.08,-6
816.11,-8
815.15,-7
814.18,-3
813.22,3
812.26,10
811.29,15
810.33,14
809.36,7
808.40,-0
807.43,-3
806.47,-2
805.51,2
804.54,6
803.58,9
802.61,12
801.65,16
800.68,22
799.72,26
798.76,28
797.79,29
796.83,29
795.86,24
794.90,16
793.94,11
792.97,14
792.01,16
791.04,16
790.08,15
789.11,13
788.15,10
787.19,10
786.22,14
785.26,20
784.29,26
783.33,29
782.36,30
781.40,34
780.44,40
779.47,40
778.51,31
777.54,19
776.58,12
775.61,12
774.65,14
773.69,10
772.72,-0
771.76,-7
770.79,-5
769.83,5
768.87,15
767.90,15
766.94,14
765.97,16
765.01,21
764.04,26
763.08,27
762.12,25
761.15,22
760.19,23
759.22,22
758.26,17
757.29,9
756.33,4
755.37,2
754.40,0
753.44,0
752.47,-0
751.51,-4
750.54,-12
749.58,-16
748.62,-6
747.65,6
746.69,13
745.72,12
744.76,9
743.79,10
742.83,8
741.87,-0
740.90,-7
739.94,-8
738.97,-4
738.01,-0
737.05,4
736.08,8
735.12,10
734.15,13
733.19,16
732.22,19
731.26,19
730.30,17
729.33,15
728.37,19
727.40,26
726.44,32
725.47,33
724.51,26
723.55,16
722.58,7
721.62,-0
720.65,-4
719.69,-4
718.72,-2
717.76,0
716.80,4
715.83,8
714.87,11
713.90,11
712.94,6
711.98,-2
711.01,-7
710.05,-7
709.08,-1
708.12,8
707.15,14
706.19,15
705.23,18
704.26,21
703.30,22
702.33,21
701.37,19
700.40,16
699.44,12
698.48,4
697.51,-4
696.55,-10
695.58,-10
694.62,-2
693.65,4
692.69,-0
691.73,-9
690.76,-13
689.80,-12
688.83,-13
687.87,-11
686.91,44
685.94,71
684.98,30
684.01,-27
683.05,-2
682.08,70
681.12,46
680.16,-1
679.19,-22
678.23,-11
677.26,9
676.30,16
675.33,18
674.37,17
673.41,11
672.44,4
671.48,0
670.51,1
669.55,-0
668.58,-6
667.62,-13
666.66,-17
665.69,-16
664.73,-10
663.76,-3
662.80,0
661.84,2
660.87,5
659.91,8
658.94,12
657.98,14
657.01,14
656.05,12
655.09,9
654.12,8
653.16,7
652.19,6
651.23,6
650.26,4
649.30,1
648.34,-3
647.37,-3
646.41,0
645.44,8
644.48,15
643.51,19
642.55,20
641.59,17
640.62,11
639.66,4
638.69,-1
637.73,0
636.77,6
635.80,13
634.84,20
633.87,25
632.91,27
631.94,28
630.98,29
630.02,27
629.05,20
628.09,10
627.12,10
626.16,16
625.19,24
624.23,30
623.27,34
622.30,36
621.34,37
620.37,38
619.41,36
618.44,31
617.48,23
616.52,18
615.55,14
614.59,12
613.62,10
612.66,6
611.70,-1
610.73,-9
609.77,-11
608.80,-10
607.84,-7
606.87,-3
605.91,2
604.95,7
603.98,10
603.02,12
602.05,12
601.09,10
600.12,9
599.16,12
598.20,16
597.23,19
596.27,20
595.30,21
594.34,22
593.37,27
592.41,36
591.45,46
590.48,54
589.52,55
588.55,49
587.59,44
586.62,47
585.66,54
584.70,61
583.73,65
582.77,71
581.80,84
580.84,96
579.88,108
578.91,121
577.95,138
576.98,162
576.02,196
575.05,234
574.09,273
573.13,306
572.16,326
571.20,333
570.23,330
569.27,317
568.30,298
567.34,274
566.38,248
565.41,222
564.45,198
563.48,174
562.52,151
561.55,127
560.59,101
559.63,76
558.66,57
557.70,45
556.73,42
555.77,44
554.81,47
553.84,45
552.88,41
551.91,40
550.95,40
549.98,43
549.02,47
548.06,53
547.09,58
546.13,60
545.16,62
544.20,63
543.23,68
542.27,68
541.31,65
540.34,62
539.38,59
538.41,55
537.45,49
536.48,46
535.52,41
534.56,33
533.59,25
532.63,24
531.66,34
530.70,41
529.74,40
528.77,34
527.81,30
526.84,30
525.88,31
524.91,26
523.95,19
522.99,14
522.02,14
521.06,19
520.09,20
519.13,17
518.16,14
517.20,13
516.24,13
515.27,10
514.31,8
513.34,11
512.38,15
511.41,17
510.45,14
509.49,9
508.52,5
507.56,1
506.59,-2
505.63,-3
504.67,0
503.70,0
502.74,1
501.77,4
500.81,8
499.84,7
498.88,1
497.92,-3
496.95,-3
495.99,-1
495.02,2
494.06,3
493.09,3
492.13,-0
491.17,-4
490.20,-7
489.24,-5
488.27,3
487.31,13
486.34,24
485.38,32
484.42,36
483.45,37
482.49,36
481.52,38
480.56,38
479.60,36
478.63,32
477.67,28
476.70,23
475.74,17
474.77,10
473.81,3
472.85,-2
471.88,-4
470.92,-3
469.95,-3
468.99,-5
468.02,-8
467.06,-7
466.10,-5
465.13,-8
464.17,-14
463.20,-17
462.24,-16
461.27,-11
460.31,-10
459.35,-11
458.38,-12
457.42,-11
456.45,-9
455.49,-2
454.53,5
453.56,10
452.60,8
451.63,0
450.67,-7
449.70,-12
448.74,-14
447.78,-11
446.81,-3
445.85,6
444.88,5
443.92,2
442.95,2
441.99,6
441.03,13
440.06,13
439.10,5
438.13,-5
437.17,-14
436.20,-19
435.24,-19
434.28,-14
433.31,-10
432.35,-10
431.38,-12
430.42,-12
429.45,-4
428.49,7
427.53,13
426.56,12
425.60,6
424.63,-1
423.67,-4
422.71,-3
421.74,0
420.78,5
419.81,9
418.85,9
417.88,9
416.92,13
415.96,17
414.99,17
414.03,6
413.06,-8
412.10,-12
411.13,-9
410.17,-3
409.21,3
408.24,8
407.28,9
406.31,7
405.35,5
404.38,5
403.42,8
402.46,15
401.49,22
400.53,27
399.56,27
398.60,22
397.64,13
396.67,8
395.71,9
394.74,14
393.78,20
392.81,26
391.85,30
390.89,29
389.92,23
388.96,13
387.99,6
387.03,11
386.06,21
385.10,31
384.14,33
383.17,28
382.21,21
381.24,17
380.28,14
379.31,10
378.35,4
377.39,-1
376.42,-2
375.46,1
374.49,4
373.53,3
372.57,-4
371.60,-4
370.64,-1
369.67,2
368.71,0
367.74,-3
366.78,-7
365.82,-9
364.85,-7
363.89,1
362.92,13
361.96,19
360.99,14
360.03,4
359.07,-5
358.10,-9
357.14,-4
356.17,6
355.21,19
354.24,30
353.28,36
352.32,31
351.35,18
350.39,6
349.42,-2
348.46,-5
347.50,-4
346.53,1
345.57,4
344.60,6
343.64,6
342.67,6
341.71,6
340.75,7
339.78,8
338.82,6
337.85,-2
336.89,-12
335.92,-12
334.96,-10
334.00,-8
333.03,-10
332.07,-13
331.10,-17
330.14,-21
329.17,-22
328.21,-18
327.25,-10
326.28,-3
325.32,1
324.35,0
323.39,-3
322.43,-7
321.46,-9
320.50,-6
319.53,-5
318.57,-6
317.60,-11
316.64,-16
315.68,-19
314.71,-21
313.75,-21
312.78,-19
311.82,-15
310.85,-12
309.89,-11
308.93,-13
307.96,-20
307.00,-31
306.03,-42
305.07,-46
304.10,-42
303.14,-32
302.18,-19
301.21,-11
300.25,-4
299.28,0
298.32,-0
297.36,-9
296.39,-15
295.43,-11
294.46,-2
293.50,5
292.53,7
291.57,2
290.61,-4
289.64,-11
288.68,-16
287.71,-18
286.75,-15
285.78,-11
284.82,-9
283.86,-8
282.89,-8
281.93,-6
280.96,-4
280.00,-4
279.03,-6
278.07,-11
277.11,-15
276.14,-17
275.18,-16
274.21,-11
273.25,-4
272.28,-1
271.32,-2
270.36,-1
269.39,2
268.43,6
267.46,7
266.50,4
265.54,-0
264.57,-2
263.61,-1
262.64,0
261.68,-2
260.71,-2
259.75,2
258.79,11
257.82,21
256.86,21
255.89,17
254.93,14
253.96,12
253.00,13
252.04,21
251.07,32
250.11,40
249.14,45
248.18,45
247.21,49
246.25,58
245.29,67
244.32,74
243.36,74
242.39,73
241.43,75
240.47,79
239.50,86
238.54,96
237.57,106
236.61,111
235.64,114
234.68,116
233.72,118
232.75,115
231.79,118
230.82,125
229.86,135
228.89,139
227.93,140
226.97,137
226.00,130
225.04,118
224.07,101
223.11,82
222.14,61
221.18,44
220.22,33
219.25,24
218.29,19
217.32,19
216.36,20
215.40,18
214.43,11
213.47,0
212.50,-8
211.54,-9
210.57,-2
209.61,13
208.65,25
207.68,29
206.72,24
205.75,12
204.79,0
203.82,-4
202.86,0
201.90,9
200.93,15
199.97,11
199.00,3
198.04,-3
197.07,-4
196.11,-3
195.15,-1
194.18,0
193.22,-2
192.25,-6
191.29,-11
190.33,-12
189.36,-9
188.40,-7
187.43,-8
186.47,-11
185.50,-10
184.54,-6
183.58,-3
182.61,-1
181.65,-2
180.68,-4
179.72,-8
178.75,-10
177.79,-9
176.83,-4
175.86,1
174.90,8
173.93,15
172.97,22
172.00,27
171.04,27
170.08,23
169.11,17
168.15,8
167.18,1
166.22,-1
165.26,0
164.29,3
163.33,6
162.36,7
161.40,7
160.43,8
159.47,9
158.51,12
157.54,14
156.58,10
155.61,3
154.65,-4
153.68,-6
152.72,-1
151.76,-1
150.79,-4
149.83,-9
148.86,-10
147.90,-1
146.93,6
145.97,9
145.01,7
144.04,3
143.08,4
142.11,9
141.15,16
140.19,22
139.22,29
138.26,34
137.29,37
136.33,37
135.36,36
134.40,27
133.44,15
132.47,0
131.51,-6
130.54,-8
129.58,-7
128.61,-4
127.65,-0
126.69,2
125.72,-1
124.76,-8
123.79,-13
122.83,-15
121.86,-14
120.90,-8
119.94,-2
118.97,2
118.01,3
117.04,0
116.08,-8
115.11,-15
114.15,-19
113.19,-21
112.22,-19
111.26,-13
110.29,-8
109.33,-6
108.37,-6
107.40,-5
106.44,-0
105.47,3
104.51,4
103.54,2
102.58,27
101.62,29
100.65,31
99.69,31
98.72,31
97.76,30
96.79,25
95.83,22
94.87,21
93.90,24
92.94,0
91.97,9
91.01,15
90.04,19
89.08,23
88.12,25
87.15,22
86.19,16
85.22,6
84.26,-1
83.30,-3
82.33,-2
81.37,-2
80.40,0
79.44,-7
78.47,-7
77.51,-1
76.55,-0
