Created As Omnic File,PLAS 260
Raman Shift / cm-1,INT
3418.58,-87
3417.61,-51
3416.65,-37
3415.68,-32
3414.72,-2
3413.76,16
3412.79,-4
3411.83,-58
3410.86,-117
3409.90,-131
3408.94,-58
3407.97,-1
3407.01,0
3406.04,1
3405.08,21
3404.11,52
3403.15,81
3402.19,81
3401.22,40
3400.26,2
3399.29,-6
3398.33,-10
3397.36,-14
3396.40,-9
3395.44,5
3394.47,33
3393.51,56
3392.54,73
3391.58,100
3390.61,131
3389.65,131
3388.69,77
3387.72,34
3386.76,23
3385.79,39
3384.83,56
3383.87,45
3382.90,44
3381.94,68
3380.97,60
3380.01,2
3379.04,-50
3378.08,-22
3377.12,8
3376.15,42
3375.19,69
3374.22,86
3373.26,119
3372.29,120
3371.33,64
3370.37,11
3369.40,-3
3368.44,4
3367.47,9
3366.51,3
3365.54,-12
3364.58,14
3363.62,50
3362.65,60
3361.69,55
3360.72,40
3359.76,26
3358.80,18
3357.83,29
3356.87,69
3355.90,89
3354.94,56
3353.97,21
3353.01,-8
3352.05,-19
3351.08,10
3350.12,47
3349.15,67
3348.19,85
3347.22,102
3346.26,102
3345.30,110
3344.33,141
3343.37,130
3342.40,84
3341.44,65
3340.47,81
3339.51,112
3338.55,121
3337.58,103
3336.62,79
3335.65,67
3334.69,71
3333.73,90
3332.76,118
3331.80,146
3330.83,152
3329.87,105
3328.90,28
3327.94,-17
3326.98,-3
3326.01,35
3325.05,79
3324.08,96
3323.12,68
3322.15,38
3321.19,62
3320.23,119
3319.26,134
3318.30,122
3317.33,111
3316.37,97
3315.40,85
3314.44,89
3313.48,85
3312.51,73
3311.55,72
3310.58,72
3309.62,95
3308.66,121
3307.69,111
3306.73,96
3305.76,91
3304.80,88
3303.83,86
3302.87,68
3301.91,35
3300.94,40
3299.98,73
3299.01,102
3298.05,122
3297.08,130
3296.12,109
3295.16,84
3294.19,110
3293.23,158
3292.26,190
3291.30,174
3290.33,95
3289.37,14
3288.41,14
3287.44,44
3286.48,31
3285.51,-1
3284.55,2
3283.59,38
3282.62,83
3281.66,114
3280.69,93
3279.73,71
3278.76,83
3277.80,60
3276.84,-10
3275.87,-45
3274.91,-10
3273.94,25
3272.98,25
3272.01,7
3271.05,-4
3270.09,1
3269.12,1
3268.16,-17
3267.19,-38
3266.23,-28
3265.26,9
3264.30,30
3263.34,30
3262.37,26
3261.41,28
3260.44,42
3259.48,51
3258.51,38
3257.55,28
3256.59,32
3255.62,33
3254.66,38
3253.69,17
3252.73,-16
3251.77,-15
3250.80,4
3249.84,0
3248.87,-8
3247.91,8
3246.94,44
3245.98,73
3245.02,84
3244.05,71
3243.09,60
3242.12,52
3241.16,34
3240.19,15
3239.23,23
3238.27,53
3237.30,91
3236.34,116
3235.37,115
3234.41,115
3233.44,101
3232.48,89
3231.52,99
3230.55,108
3229.59,98
3228.62,73
3227.66,56
3226.70,46
3225.73,20
3224.77,27
3223.80,76
3222.84,89
3221.87,52
3220.91,40
3219.95,75
3218.98,107
3218.02,111
3217.05,96
3216.09,85
3215.12,103
3214.16,135
3213.20,149
3212.23,143
3211.27,120
3210.30,87
3209.34,62
3208.37,54
3207.41,51
3206.45,52
3205.48,59
3204.52,57
3203.55,47
3202.59,61
3201.63,100
3200.66,117
3199.70,93
3198.73,59
3197.77,34
3196.80,21
3195.84,37
3194.88,71
3193.91,92
3192.95,79
3191.98,38
3191.02,29
3190.05,46
3189.09,44
3188.13,51
3187.16,83
3186.20,117
3185.23,121
3184.27,96
3183.30,73
3182.34,54
3181.38,45
3180.41,53
3179.45,61
3178.48,57
3177.52,49
3176.56,72
3175.59,102
3174.63,74
3173.66,11
3172.70,-32
3171.73,-18
3170.77,53
3169.81,116
3168.84,114
3167.88,69
3166.91,52
3165.95,48
3164.98,2
3164.02,-50
3163.06,-59
3162.09,-23
3161.13,28
3160.16,64
3159.20,58
3158.23,15
3157.27,0
3156.31,22
3155.34,52
3154.38,95
3153.41,100
3152.45,40
3151.49,-12
3150.52,1
3149.56,52
3148.59,64
3147.63,43
3146.66,49
3145.70,82
3144.74,80
3143.77,53
3142.81,53
3141.84,71
3140.88,91
3139.91,94
3138.95,73
3137.99,55
3137.02,53
3136.06,51
3135.09,36
3134.13,26
3133.16,33
3132.20,58
3131.24,73
3130.27,59
3129.31,39
3128.34,31
3127.38,26
3126.42,7
3125.45,8
3124.49,50
3123.52,88
3122.56,96
3121.59,64
3120.63,22
3119.67,18
3118.70,37
3117.74,47
3116.77,48
3115.81,39
3114.84,6
3113.88,-24
3112.92,-10
3111.95,30
3110.99,71
3110.02,91
3109.06,73
3108.09,45
3107.13,16
3106.17,-25
3105.20,-45
3104.24,-39
3103.27,-27
3102.31,4
3101.34,33
3100.38,44
3099.42,56
3098.45,49
3097.49,36
3096.52,35
3095.56,39
3094.60,31
3093.63,8
3092.67,-4
3091.70,5
3090.74,1
3089.77,-2
3088.81,28
3087.85,46
3086.88,37
3085.92,22
3084.95,24
3083.99,48
3083.02,68
3082.06,24
3081.10,-5
3080.13,-31
3079.17,-37
3078.20,-46
3077.24,-54
3076.27,-36
3075.31,-3
3074.35,13
3073.38,-14
3072.42,-58
3071.45,-63
3070.49,-36
3069.53,-7
3068.56,9
3067.60,9
3066.63,-8
3065.67,-29
3064.70,-28
3063.74,-28
3062.78,-25
3061.81,-25
3060.85,-52
3059.88,-73
3058.92,-54
3057.95,-13
3056.99,12
3056.03,-5
3055.06,-49
3054.10,-68
3053.13,-50
3052.17,-30
3051.20,-51
3050.24,-93
3049.28,-105
3048.31,-112
3047.35,-146
3046.38,-142
3045.42,-94
3044.46,-81
3043.49,-105
3042.53,-121
3041.56,-100
3040.60,-59
3039.63,-40
3038.67,-45
3037.71,-57
3036.74,-56
3035.78,-50
3034.81,-73
3033.85,-109
3032.88,-106
3031.92,-46
3030.96,-5
3029.99,-41
3029.03,-77
3028.06,-88
3027.10,-87
3026.13,-75
3025.17,-71
3024.21,-81
3023.24,-79
3022.28,-58
3021.31,-38
3020.35,-63
3019.39,-121
3018.42,-115
3017.46,-34
3016.49,33
3015.53,43
3014.56,17
3013.60,7
3012.64,63
3011.67,62
3010.71,50
3009.74,33
3008.78,16
3007.81,16
3006.85,27
3005.89,38
3004.92,48
3003.96,45
3002.99,24
3002.03,10
3001.06,-4
3000.10,-26
2999.14,-24
2998.17,1
2997.21,0
2996.24,-18
2995.28,-33
2994.32,-43
2993.35,-13
2992.39,2
2991.42,-17
2990.46,-17
2989.49,8
2988.53,30
2987.57,42
2986.60,20
2985.64,-25
2984.67,-41
2983.71,-56
2982.74,-59
2981.78,-35
2980.82,-9
2979.85,5
2978.89,14
2977.92,31
2976.96,47
2975.99,45
2975.03,36
2974.07,21
2973.10,-0
2972.14,-1
2971.17,-4
2970.21,-3
2969.25,18
2968.28,38
2967.32,63
2966.35,91
2965.39,87
2964.42,87
2963.46,77
2962.50,62
2961.53,63
2960.57,53
2959.60,39
2958.64,51
2957.67,50
2956.71,22
2955.75,15
2954.78,32
2953.82,0
2952.85,-72
2951.89,-100
2950.92,-74
2949.96,-35
2949.00,-8
2948.03,-10
2947.07,-27
2946.10,-37
2945.14,-50
2944.17,-62
2943.21,-42
2942.25,-88
2941.28,-34
2940.32,-12
2939.35,-14
2938.39,-18
2937.43,-17
2936.46,-8
2935.50,0
2934.53,18
2933.57,63
2932.60,109
2931.64,127
2930.68,134
2929.71,105
2928.75,103
2927.78,138
2926.82,169
2925.85,144
2924.89,86
2923.93,31
2922.96,-3
2922.00,-14
2921.03,-69
2920.07,-98
2919.10,-118
2918.14,-97
2917.18,-31
2916.21,17
2915.25,-31
2914.28,-119
2913.32,-151
2912.36,-111
2911.39,-13
2910.43,90
2909.46,174
2908.50,272
2907.53,398
2906.57,516
2905.61,616
2904.64,704
2903.68,777
2902.71,916
2901.75,1122
2900.78,1293
2899.82,1364
2898.86,1425
2897.89,1532
2896.93,1665
2895.96,1764
2895.00,1830
2894.03,1931
2893.07,2095
2892.11,2326
2891.14,2644
2890.18,3031
2889.21,3510
2888.25,4195
2887.29,5156
2886.32,6501
2885.36,8150
2884.39,9956
2883.43,11581
2882.46,12704
2881.50,13262
2880.54,12832
2879.57,11750
2878.61,10131
2877.64,8251
2876.68,6655
2875.71,5405
2874.75,4622
2873.79,4112
2872.82,3729
2871.86,3444
2870.89,3238
2869.93,3102
2868.96,3024
2868.00,3067
2867.04,3221
2866.07,3392
2865.11,3508
2864.14,3658
2863.18,3907
2862.22,4144
2861.25,4300
2860.29,4483
2859.32,4787
2858.36,5165
2857.39,5548
2856.43,5910
2855.47,6285
2854.50,6692
2853.54,7083
2852.57,7462
2851.61,7844
2850.64,8170
2849.68,8458
2848.72,8684
2847.75,8773
2846.79,8712
2845.82,8507
2844.86,8171
2843.89,7672
2842.93,7060
2841.97,6382
2841.00,5663
2840.04,4918
2839.07,4223
2838.11,3586
2837.15,2963
2836.18,2379
2835.22,1907
2834.25,1556
2833.29,1247
2832.32,970
2831.36,778
2830.40,647
2829.43,518
2828.47,383
2827.50,286
2826.54,250
2825.57,176
2824.61,21
2823.65,-76
2822.68,-23
2821.72,102
2820.75,181
2819.79,204
2818.82,162
2817.86,77
2816.90,-1
2815.93,-40
2814.97,-18
2814.00,41
2813.04,52
2812.08,4
2811.11,-22
2810.15,3
2809.18,58
2808.22,110
2807.25,104
2806.29,55
2805.33,27
2804.36,28
2803.40,42
2802.43,54
2801.47,57
2800.50,67
2799.54,93
2798.58,105
2797.61,70
2796.65,37
2795.68,68
2794.72,99
2793.75,78
2792.79,109
2791.83,99
2790.86,78
2789.90,57
2788.93,57
2787.97,85
2787.00,134
2786.04,176
2785.08,203
2784.11,211
2783.15,170
2782.18,85
2781.22,17
2780.26,5
2779.29,13
2778.33,3
2777.36,6
2776.40,28
2775.43,-2
2774.47,-78
2773.51,-75
2772.54,-6
2771.58,23
2770.61,-17
2769.65,-105
2768.68,-164
2767.72,-153
2766.76,-119
2765.79,-111
2764.83,-128
2763.86,-125
2762.90,-73
2761.93,-21
2760.97,-7
2760.01,0
2759.04,-16
2758.08,-29
2757.11,7
2756.15,6
2755.19,-58
2754.22,-93
2753.26,-53
2752.29,18
2751.33,68
2750.36,112
2749.40,159
2748.44,184
2747.47,150
2746.51,65
2745.54,-48
2744.58,-114
2743.61,-52
2742.65,65
2741.69,141
2740.72,161
2739.76,156
2738.79,134
2737.83,96
2736.86,67
2735.90,87
2734.94,158
2733.97,238
2733.01,303
2732.04,311
2731.08,292
2730.12,329
2729.15,418
2728.19,512
2727.22,598
2726.26,668
2725.29,700
2724.33,709
2723.37,717
2722.40,702
2721.44,655
2720.47,600
2719.51,570
2718.54,625
2717.58,736
2716.62,816
2715.65,809
2714.69,739
2713.72,649
2712.76,570
2711.79,525
2710.83,486
2709.87,459
2708.90,471
2707.94,454
2706.97,384
2706.01,296
2705.05,208
2704.08,182
2703.12,253
2702.15,343
2701.19,360
2700.22,298
2699.26,212
2698.30,150
2697.33,143
2696.37,176
2695.40,184
2694.44,139
2693.47,90
2692.51,40
2691.55,80
2690.58,163
2689.62,232
2688.65,226
2687.69,168
2686.72,123
2685.76,144
2684.80,205
2683.83,231
2682.87,191
2681.90,116
2680.94,71
2679.98,73
2679.01,97
2678.05,132
2677.08,169
2676.12,200
2675.15,210
2674.19,183
2673.23,134
2672.26,85
2671.30,31
2670.33,1
2669.37,8
2668.40,11
2667.44,4
2666.48,20
2665.51,81
2664.55,151
2663.58,168
2662.62,132
2661.65,114
2660.69,137
2659.73,151
2658.76,169
2657.80,238
2656.83,305
2655.87,333
2654.91,311
2653.94,261
2652.98,234
2652.01,228
2651.05,230
2650.08,258
2649.12,278
2648.16,219
2647.19,101
2646.23,66
2645.26,152
2644.30,213
2643.33,237
2642.37,307
2641.41,405
2640.44,443
2639.48,377
2638.51,265
2637.55,205
2636.58,192
2635.62,144
2634.66,77
2633.69,24
2632.73,-30
2631.76,-65
2630.80,-53
2629.83,42
2628.87,199
2627.91,363
2626.94,414
2625.98,302
2625.01,132
2624.05,47
2623.09,64
2622.12,92
2621.16,80
2620.19,70
2619.23,78
2618.26,67
2617.30,44
2616.34,53
2615.37,77
2614.41,78
2613.44,56
2612.48,18
2611.51,-25
2610.55,-22
2609.59,41
2608.62,81
2607.66,47
2606.69,0
2605.73,-19
2604.76,-16
2603.80,13
2602.84,44
2601.87,46
2600.91,23
2599.94,-13
2598.98,-43
2598.02,-49
2597.05,-54
2596.09,-40
2595.12,-2
2594.16,10
2593.19,9
2592.23,33
2591.27,60
2590.30,65
2589.34,47
2588.37,21
2587.41,0
2586.44,-6
2585.48,-10
2584.52,-44
2583.55,-131
2582.59,-187
2581.62,-151
2580.66,-81
2579.69,-22
2578.73,8
2577.77,-32
2576.80,-120
2575.84,-171
2574.87,-153
2573.91,-117
2572.95,-38
2571.98,-30
2571.02,-103
2570.05,-138
2569.09,-109
2568.12,-31
2567.16,56
2566.20,61
2565.23,-9
2564.27,-70
2563.30,-97
2562.34,-79
2561.37,-2
2560.41,60
2559.45,33
2558.48,-91
2557.52,-206
2556.55,-179
2555.59,-69
2554.62,20
2553.66,31
2552.70,-42
2551.73,-138
2550.77,-194
2549.80,-225
2548.84,-270
2547.88,-303
2546.91,-269
2545.95,-207
2544.98,-189
2544.02,-147
2543.05,-51
2542.09,32
2541.13,23
2540.16,-76
2539.20,-174
2538.23,-179
2537.27,-107
2536.30,-49
2535.34,-45
2534.38,-55
2533.41,-68
2532.45,-120
2531.48,-166
2530.52,-176
2529.55,-182
2528.59,-170
2527.63,-118
2526.66,-54
2525.70,-6
2524.73,-9
2523.77,-62
2522.81,-149
2521.84,-207
2520.88,-217
2519.91,-189
2518.95,-131
2517.98,-146
2517.02,-198
2516.06,-197
2515.09,-150
2514.13,-65
2513.16,45
2512.20,91
2511.23,26
2510.27,-65
2509.31,-112
2508.34,-90
2507.38,0
2506.41,72
2505.45,62
2504.48,4
2503.52,-23
2502.56,15
2501.59,66
2500.63,75
2499.66,59
2498.70,57
2497.74,101
2496.77,180
2495.81,234
2494.84,222
2493.88,139
2492.91,72
2491.95,58
2490.99,60
2490.02,88
2489.06,134
2488.09,136
2487.13,86
2486.16,71
2485.20,45
2484.24,67
2483.27,151
2482.31,207
2481.34,219
2480.38,215
2479.41,167
2478.45,101
2477.49,56
2476.52,16
2475.56,-23
2474.59,-45
2473.63,-23
2472.66,30
2471.70,49
2470.74,15
2469.77,-16
2468.81,-6
2467.84,41
2466.88,99
2465.92,133
2464.95,132
2463.99,128
2463.02,105
2462.06,42
2461.09,-12
2460.13,-13
2459.17,0
2458.20,0
2457.24,-22
2456.27,-97
2455.31,-141
2454.34,-72
2453.38,45
2452.42,105
2451.45,101
2450.49,38
2449.52,-15
2448.56,-31
2447.59,-32
2446.63,-52
2445.67,-81
2444.70,-50
2443.74,94
2442.77,266
2441.81,355
2440.85,369
2439.88,358
2438.92,296
2437.95,200
2436.99,139
2436.02,123
2435.06,123
2434.10,146
2433.13,192
2432.17,218
2431.20,250
2430.24,284
2429.27,284
2428.31,238
2427.35,158
2426.38,92
2425.42,48
2424.45,13
2423.49,6
2422.52,43
2421.56,112
2420.60,204
2419.63,276
2418.67,264
2417.70,189
2416.74,143
2415.78,105
2414.81,4
2413.85,-130
2412.88,-235
2411.92,-240
2410.95,-107
2409.99,63
2409.03,114
2408.06,20
2407.10,-139
2406.13,-269
2405.17,-293
2404.20,-212
2403.24,-99
2402.28,-13
2401.31,4
2400.35,-29
2399.38,-35
2398.42,-13
2397.45,4
2396.49,2
2395.53,-24
2394.56,-66
2393.60,-78
2392.63,-81
2391.67,-158
2390.71,-226
2389.74,-153
2388.78,-18
2387.81,75
2386.85,97
2385.88,50
2384.92,-20
2383.96,-65
2382.99,-95
2382.03,-128
2381.06,-103
2380.10,13
2379.13,151
2378.17,264
2377.21,328
2376.24,329
2375.28,288
2374.31,172
2373.35,-10
2372.38,-127
2371.42,-95
2370.46,12
2369.49,68
2368.53,68
2367.56,113
2366.60,212
2365.64,236
2364.67,148
2363.71,23
2362.74,-80
2361.78,-72
2360.81,34
2359.85,114
2358.89,81
2357.92,-29
2356.96,-104
2355.99,-90
2355.03,-10
2354.06,104
2353.10,175
2352.14,148
2351.17,83
2350.21,54
2349.24,124
2348.28,255
2347.31,360
2346.35,381
2345.39,292
2344.42,153
2343.46,77
2342.49,95
2341.53,127
2340.57,143
2339.60,180
2338.64,224
2337.67,271
2336.71,286
2335.74,229
2334.78,171
2333.82,135
2332.85,91
2331.89,72
2330.92,109
2329.96,188
2328.99,299
2328.03,390
2327.07,397
2326.10,372
2325.14,387
2324.17,426
2323.21,429
2322.24,353
2321.28,245
2320.32,193
2319.35,205
2318.39,238
2317.42,279
2316.46,334
2315.49,375
2314.53,369
2313.57,348
2312.60,355
2311.64,348
2310.67,344
2309.71,379
2308.75,378
2307.78,328
2306.82,274
2305.85,225
2304.89,185
2303.92,184
2302.96,214
2302.00,213
2301.03,148
2300.07,99
2299.10,129
2298.14,179
2297.17,209
2296.21,229
2295.25,212
2294.28,153
2293.32,138
2292.35,206
2291.39,282
2290.42,299
2289.46,270
2288.50,186
2287.53,69
2286.57,39
2285.60,111
2284.64,186
2283.68,207
2282.71,191
2281.75,212
2280.78,269
2279.82,296
2278.85,273
2277.89,231
2276.93,216
2275.96,247
2275.00,288
2274.03,297
2273.07,287
2272.10,278
2271.14,272
2270.18,289
2269.21,311
2268.25,291
2267.28,235
2266.32,179
2265.35,152
2264.39,167
2263.43,206
2262.46,247
2261.50,289
2260.53,342
2259.57,401
2258.61,370
2257.64,194
2256.68,4
2255.71,-98
2254.75,-74
2253.78,74
2252.82,221
2251.86,278
2250.89,233
2249.93,128
2248.96,147
2248.00,315
2247.03,336
2246.07,189
2245.11,114
2244.14,96
2243.18,91
2242.21,95
2241.25,69
2240.28,47
2239.32,55
2238.36,96
2237.39,130
2236.43,137
2235.46,88
2234.50,-13
2233.54,-69
2232.57,-31
2231.61,43
2230.64,123
2229.68,147
2228.71,82
2227.75,35
2226.79,34
2225.82,0
2224.86,-37
2223.89,6
2222.93,97
2221.96,143
2221.00,145
2220.04,143
2219.07,84
2218.11,-49
2217.14,-144
2216.18,-123
2215.21,-7
2214.25,145
2213.29,230
2212.32,176
2211.36,55
2210.39,-13
2209.43,-17
2208.47,1
2207.50,-24
2206.54,-80
2205.57,-100
2204.61,-29
2203.64,88
2202.68,169
2201.72,204
2200.75,216
2199.79,211
2198.82,191
2197.86,150
2196.89,77
2195.93,-26
2194.97,-138
2194.00,-216
2193.04,-234
2192.07,-191
2191.11,-88
2190.14,32
2189.18,102
2188.22,114
2187.25,102
2186.29,93
2185.32,97
2184.36,92
2183.40,60
2182.43,64
2181.47,9
2180.50,-52
2179.54,-82
2178.57,-57
2177.61,-4
2176.65,41
2175.68,48
2174.72,14
2173.75,-23
2172.79,-50
2171.82,-66
2170.86,-55
2169.90,-19
2168.93,17
2167.97,16
2167.00,-26
2166.04,-68
2165.07,-74
2164.11,-46
2163.15,2
2162.18,37
2161.22,38
2160.25,14
2159.29,-4
2158.32,16
2157.36,63
2156.40,79
2155.43,32
2154.47,-39
2153.50,-69
2152.54,-42
2151.58,11
2150.61,50
2149.65,61
2148.68,71
2147.72,84
2146.75,80
2145.79,76
2144.83,96
2143.86,101
2142.90,48
2141.93,-49
2140.97,-131
2140.00,-154
2139.04,-136
2138.08,-110
2137.11,-65
2136.15,-2
2135.18,14
2134.22,-12
2133.25,12
2132.29,100
2131.33,179
2130.36,178
2129.40,104
2128.43,34
2127.47,22
2126.51,29
2125.54,10
2124.58,-6
2123.61,9
2122.65,10
2121.68,-1
2120.72,6
2119.76,22
2118.79,55
2117.83,68
2116.86,34
2115.90,0
2114.93,-4
2113.97,3
2113.01,15
2112.04,47
2111.08,77
2110.11,87
2109.15,84
2108.18,60
2107.22,43
2106.26,41
2105.29,23
2104.33,26
2103.36,62
2102.40,100
2101.44,129
2100.47,137
2099.51,117
2098.54,76
2097.58,19
2096.61,-51
2095.65,-112
2094.69,-128
2093.72,-104
2092.76,-56
2091.79,27
2090.83,103
2089.86,133
2088.90,124
2087.94,102
2086.97,75
2086.01,56
2085.04,68
2084.08,108
2083.11,144
2082.15,158
2081.19,152
2080.22,127
2079.26,86
2078.29,117
2077.33,190
2076.37,228
2075.40,199
2074.44,148
2073.47,123
2072.51,109
2071.54,60
2070.58,-20
2069.62,-66
2068.65,-42
2067.69,9
2066.72,44
2065.76,74
2064.79,109
2063.83,138
2062.87,144
2061.90,116
2060.94,58
2059.97,0
2059.01,-34
2058.04,-44
2057.08,-50
2056.12,-74
2055.15,-111
2054.19,-123
2053.22,-96
2052.26,-83
2051.30,-98
2050.33,-111
2049.37,-111
2048.40,-78
2047.44,-19
2046.47,16
2045.51,10
2044.55,-49
2043.58,-35
2042.62,-4
2041.65,43
2040.69,96
2039.72,118
2038.76,90
2037.80,28
2036.83,-51
2035.87,-114
2034.90,-128
2033.94,-104
2032.97,-76
2032.01,-45
2031.05,-21
2030.08,-38
2029.12,-105
2028.15,-175
2027.19,-174
2026.23,-101
2025.26,-51
2024.30,-48
2023.33,-53
2022.37,-63
2021.40,-62
2020.44,-40
2019.48,-34
2018.51,-61
2017.55,-91
2016.58,-100
2015.62,-105
2014.65,-116
2013.69,-109
2012.73,-67
2011.76,5
2010.80,88
2009.83,141
2008.87,150
2007.90,143
2006.94,115
2005.98,87
2005.01,-2
2004.05,-81
2003.08,-122
2002.12,-113
2001.15,-73
2000.19,-31
1999.23,-10
1998.26,-23
1997.30,-64
1996.33,-100
1995.37,-111
1994.41,-103
1993.44,-87
1992.48,-76
1991.51,-63
1990.55,-53
1989.58,-56
1988.62,-60
1987.66,-46
1986.69,-17
1985.73,-5
1984.76,-24
1983.80,-40
1982.83,-9
1981.87,56
1980.91,85
1979.94,33
1978.98,-65
1978.01,-137
1977.05,-146
1976.08,-113
1975.12,-84
1974.16,-81
1973.19,-103
1972.23,-132
1971.26,-132
1970.30,-78
1969.34,7
1968.37,57
1967.41,51
1966.44,-39
1965.48,-82
1964.51,-118
1963.55,-118
1962.59,-100
1961.62,-63
1960.66,-27
1959.69,-58
1958.73,-156
1957.76,-221
1956.80,-209
1955.84,-159
1954.87,-83
1953.91,-19
1952.94,-11
1951.98,-26
1951.01,-43
1950.05,-64
1949.09,-63
1948.12,-37
1947.16,-25
1946.19,-49
1945.23,-85
1944.27,-92
1943.30,-60
1942.34,-16
1941.37,20
1940.41,46
1939.44,52
1938.48,29
1937.52,-8
1936.55,-40
1935.59,-54
1934.62,-42
1933.66,-16
1932.69,8
1931.73,30
1930.77,37
1929.80,23
1928.84,6
1927.87,-3
1926.91,-21
1925.94,-38
1924.98,-29
1924.02,-8
1923.05,13
1922.09,35
1921.12,83
1920.16,77
1919.20,82
1918.23,108
1917.27,147
1916.30,181
1915.34,172
1914.37,110
1913.41,31
1912.45,-18
1911.48,-21
1910.52,-0
1909.55,14
1908.59,17
1907.62,15
1906.66,-3
1905.70,-34
1904.73,-51
1903.77,-50
1902.80,-40
1901.84,-23
1900.87,-7
1899.91,-18
1898.95,-51
1897.98,-60
1897.02,-24
1896.05,33
1895.09,60
1894.13,46
1893.16,26
1892.20,18
1891.23,-10
1890.27,-44
1889.30,-77
1888.34,-90
1887.38,-74
1886.41,-37
1885.45,8
1884.48,44
1883.52,46
1882.55,9
1881.59,-25
1880.63,-26
1879.66,-22
1878.70,-21
1877.73,-9
1876.77,-9
1875.80,-23
1874.84,-11
1873.88,38
1872.91,94
1871.95,120
1870.98,101
1870.02,47
1869.06,10
1868.09,27
1867.13,61
1866.16,75
1865.20,87
1864.23,98
1863.27,83
1862.31,49
1861.34,24
1860.38,14
1859.41,13
1858.45,24
1857.48,47
1856.52,68
1855.56,77
1854.59,88
1853.63,118
1852.66,148
1851.70,148
1850.73,106
1849.77,62
1848.81,55
1847.84,76
1846.88,97
1845.91,114
1844.95,121
1843.98,123
1843.02,120
1842.06,125
1841.09,150
1840.13,145
1839.16,84
1838.20,24
1837.24,11
1836.27,36
1835.31,65
1834.34,65
1833.38,42
1832.41,23
1831.45,12
1830.49,-6
1829.52,-21
1828.56,-21
1827.59,-15
1826.63,-4
1825.66,22
1824.70,57
1823.74,79
1822.77,76
1821.81,53
1820.84,13
1819.88,-36
1818.91,-58
1817.95,-48
1816.99,-32
1816.02,-30
1815.06,-40
1814.09,-45
1813.13,-41
1812.17,-29
1811.20,-0
1810.24,39
1809.27,52
1808.31,23
1807.34,-2
1806.38,10
1805.42,19
1804.45,0
1803.49,-29
1802.52,-46
1801.56,-47
1800.59,-49
1799.63,-60
1798.67,-56
1797.70,-26
1796.74,14
1795.77,25
1794.81,-1
1793.84,-25
1792.88,-25
1791.92,-20
1790.95,-21
1789.99,-25
1789.02,-40
1788.06,-64
1787.10,-87
1786.13,-95
1785.17,-84
1784.20,-55
1783.24,-11
1782.27,28
1781.31,23
1780.35,9
1779.38,1
1778.42,-20
1777.45,-39
1776.49,-30
1775.52,-19
1774.56,-31
1773.60,-64
1772.63,-100
1771.67,-122
1770.70,-115
1769.74,-77
1768.77,-28
1767.81,2
1766.85,-1
1765.88,-24
1764.92,-53
1763.95,-73
1762.99,-63
1762.03,-40
1761.06,-18
1760.10,0
1759.13,2
1758.17,-24
1757.20,-69
1756.24,-103
1755.28,-104
1754.31,-79
1753.35,-43
1752.38,-16
1751.42,-15
1750.45,-32
1749.49,-33
1748.53,-9
1747.56,11
1746.60,23
1745.63,25
1744.67,14
1743.70,5
1742.74,9
1741.78,29
1740.81,62
1739.85,84
1738.88,70
1737.92,36
1736.96,12
1735.99,9
1735.03,22
1734.06,43
1733.10,62
1732.13,64
1731.17,52
1730.21,53
1729.24,81
1728.28,118
1727.31,142
1726.35,140
1725.38,111
1724.42,64
1723.46,24
1722.49,7
1721.53,7
1720.56,21
1719.60,53
1718.63,71
1717.67,75
1716.71,77
1715.74,76
1714.78,65
1713.81,53
1712.85,51
1711.89,53
1710.92,57
1709.96,63
1708.99,65
1708.03,47
1707.06,22
1706.10,16
1705.14,22
1704.17,25
1703.21,16
1702.24,15
1701.28,33
1700.31,52
1699.35,51
1698.39,35
1697.42,18
1696.46,-4
1695.49,-40
1694.53,-78
1693.56,-88
1692.60,-71
1691.64,-48
1690.67,-32
1689.71,-31
1688.74,-37
1687.78,-39
1686.81,-43
1685.85,-54
1684.89,-73
1683.92,-95
1682.96,-113
1681.99,-115
1681.03,-101
1680.07,-84
1679.10,-79
1678.14,-72
1677.17,-50
1676.21,-32
1675.24,-19
1674.28,9
1673.32,41
1672.35,57
1671.39,47
1670.42,13
1669.46,-37
1668.49,-78
1667.53,-76
1666.57,-30
1665.60,27
1664.64,51
1663.67,29
1662.71,-22
1661.74,-54
1660.78,-42
1659.82,-14
1658.85,15
1657.89,23
1656.92,-2
1655.96,-34
1655.00,-53
1654.03,-54
1653.07,-39
1652.10,-18
1651.14,-1
1650.17,10
1649.21,27
1648.25,49
1647.28,57
1646.32,38
1645.35,13
1644.39,9
1643.42,15
1642.46,0
1641.50,-24
1640.53,-30
1639.57,-9
1638.60,15
1637.64,18
1636.67,8
1635.71,9
1634.75,23
1633.78,31
1632.82,24
1631.85,19
1630.89,16
1629.93,5
1628.96,1
1628.00,3
1627.03,-19
1626.07,-39
1625.10,-35
1624.14,-11
1623.18,13
1622.21,20
1621.25,11
1620.28,-0
1619.32,-6
1618.35,-15
1617.39,-28
1616.43,-23
1615.46,5
1614.50,47
1613.53,66
1612.57,56
1611.60,35
1610.64,21
1609.68,12
1608.71,10
1607.75,20
1606.78,45
1605.82,76
1604.86,97
1603.89,106
1602.93,111
1601.96,117
1601.00,102
1600.03,52
1599.07,0
1598.11,-15
1597.14,-1
1596.18,23
1595.21,43
1594.25,51
1593.28,45
1592.32,26
1591.36,10
1590.39,8
1589.43,13
1588.46,7
1587.50,3
1586.53,34
1585.57,72
1584.61,65
1583.64,30
1582.68,12
1581.71,11
1580.75,4
1579.79,-3
1578.82,10
1577.86,40
1576.89,63
1575.93,64
1574.96,43
1574.00,13
1573.04,-5
1572.07,-0
1571.11,9
1570.14,24
1569.18,39
1568.21,27
1567.25,3
1566.29,-30
1565.32,-52
1564.36,-51
1563.39,-31
1562.43,-8
1561.46,3
1560.50,-0
1559.54,-10
1558.57,-14
1557.61,-9
1556.64,-1
1555.68,13
1554.72,25
1553.75,31
1552.79,33
1551.82,32
1550.86,27
1549.89,26
1548.93,30
1547.97,32
1547.00,21
1546.04,-3
1545.07,-31
1544.11,-49
1543.14,-49
1542.18,-40
1541.22,-38
1540.25,-49
1539.29,-63
1538.32,-71
1537.36,-62
1536.39,-41
1535.43,-29
1534.47,-26
1533.50,-6
1532.54,31
1531.57,57
1530.61,60
1529.64,41
1528.68,14
1527.72,-4
1526.75,2
1525.79,32
1524.82,59
1523.86,52
1522.90,20
1521.93,-2
1520.97,-15
1520.00,-29
1519.04,-28
1518.07,-4
1517.11,28
1516.15,44
1515.18,37
1514.22,16
1513.25,-0
1512.29,-4
1511.32,3
1510.36,3
1509.40,-11
1508.43,-20
1507.47,-2
1506.50,23
1505.54,44
1504.57,47
1503.61,27
1502.65,13
1501.68,23
1500.72,43
1499.75,44
1498.79,19
1497.83,-6
1496.86,-3
1495.90,38
1494.93,89
1493.97,107
1493.00,93
1492.04,75
1491.08,70
1490.11,84
1489.15,106
1488.18,114
1487.22,108
1486.25,112
1485.29,143
1484.33,179
1483.36,207
1482.40,222
1481.43,223
1480.47,231
1479.50,273
1478.54,337
1477.58,387
1476.61,412
1475.65,438
1474.68,485
1473.72,540
1472.76,591
1471.79,643
1470.83,713
1469.86,811
1468.90,921
1467.93,1022
1466.97,1106
1466.01,1181
1465.04,1247
1464.08,1293
1463.11,1316
1462.15,1332
1461.18,1335
1460.22,1309
1459.26,1286
1458.29,1281
1457.33,1288
1456.36,1290
1455.40,1279
1454.43,1246
1453.47,1198
1452.51,1155
1451.54,1138
1450.58,1149
1449.61,1178
1448.65,1223
1447.69,1288
1446.72,1351
1445.76,1430
1444.79,1551
1443.83,1727
1442.86,1952
1441.90,2177
1440.94,2348
1439.97,2444
1439.01,2419
1438.04,2310
1437.08,2153
1436.11,1948
1435.15,1724
1434.19,1511
1433.22,1306
1432.26,1127
1431.29,973
1430.33,835
1429.36,725
1428.40,654
1427.44,603
1426.47,576
1425.51,579
1424.54,577
1423.58,573
1422.62,592
1421.65,655
1420.69,766
1419.72,908
1418.76,1060
1417.79,1204
1416.83,1307
1415.87,1314
1414.90,1255
1413.94,1102
1412.97,883
1412.01,688
1411.04,489
1410.08,327
1409.12,221
1408.15,146
1407.19,89
1406.22,64
1405.26,70
1404.29,83
1403.33,82
1402.37,62
1401.40,38
1400.44,27
1399.47,35
1398.51,48
1397.55,47
1396.58,31
1395.62,31
1394.65,50
1393.69,55
1392.72,58
1391.76,62
1390.80,54
1389.83,35
1388.87,20
1387.90,15
1386.94,11
1385.97,-2
1385.01,-18
1384.05,-13
1383.08,20
1382.12,45
1381.15,56
1380.19,71
1379.22,82
1378.26,82
1377.30,81
1376.33,91
1375.37,113
1374.40,140
1373.44,168
1372.47,198
1371.51,230
1370.55,258
1369.58,269
1368.62,254
1367.65,230
1366.69,213
1365.73,201
1364.76,182
1363.80,155
1362.83,126
1361.87,124
1360.90,146
1359.94,166
1358.98,164
1358.01,139
1357.05,108
1356.08,86
1355.12,77
1354.15,77
1353.19,87
1352.23,105
1351.26,110
1350.30,95
1349.33,80
1348.37,76
1347.40,84
1346.44,94
1345.48,94
1344.51,88
1343.55,87
1342.58,94
1341.62,99
1340.66,101
1339.69,102
1338.73,99
1337.76,89
1336.80,75
1335.83,65
1334.87,59
1333.91,58
1332.94,60
1331.98,70
1331.01,86
1330.05,104
1329.08,119
1328.12,133
1327.16,143
1326.19,151
1325.23,158
1324.26,167
1323.30,180
1322.33,192
1321.37,203
1320.41,205
1319.44,200
1318.48,199
1317.51,205
1316.55,211
1315.59,215
1314.62,231
1313.66,266
1312.69,298
1311.73,308
1310.76,303
1309.80,306
1308.84,328
1307.87,363
1306.91,396
1305.94,430
1304.98,476
1304.01,537
1303.05,597
1302.09,676
1301.12,785
1300.16,1060
1299.19,1476
1298.23,2008
1297.26,2638
1296.30,3235
1295.34,3638
1294.37,3832
1293.41,3705
1292.44,3154
1291.48,2433
1290.52,1740
1289.55,1107
1288.59,711
1287.62,543
1286.66,472
1285.69,413
1284.73,377
1283.77,301
1282.80,234
1281.84,193
1280.87,192
1279.91,213
1278.94,234
1277.98,244
1277.02,245
1276.05,238
1275.09,230
1274.12,227
1273.16,235
1272.19,248
1271.23,261
1270.27,261
1269.30,248
1268.34,229
1267.37,215
1266.41,206
1265.45,191
1264.48,180
1263.52,191
1262.55,199
1261.59,190
1260.62,170
1259.66,149
1258.70,135
1257.73,130
1256.77,137
1255.80,155
1254.84,163
1253.87,144
1252.91,112
1251.95,85
1250.98,69
1250.02,57
1249.05,41
1248.09,31
1247.12,43
1246.16,71
1245.20,88
1244.23,92
1243.27,92
1242.30,94
1241.34,92
1240.38,87
1239.41,80
1238.45,77
1237.48,83
1236.52,102
1235.55,110
1234.59,98
1233.63,91
1232.66,93
1231.70,91
1230.73,75
1229.77,54
1228.80,40
1227.84,40
1226.88,48
1225.91,61
1224.95,76
1223.98,94
1223.02,109
1222.05,117
1221.09,118
1220.13,122
1219.16,140
1218.20,148
1217.23,132
1216.27,110
1215.30,93
1214.34,82
1213.38,73
1212.41,62
1211.45,48
1210.48,40
1209.52,54
1208.56,84
1207.59,108
1206.63,118
1205.66,123
1204.70,132
1203.73,150
1202.77,174
1201.81,195
1200.84,204
1199.88,195
1198.91,171
1197.95,149
1196.98,140
1196.02,145
1195.06,153
1194.09,158
1193.13,160
1192.16,154
1191.20,138
1190.23,126
1189.27,128
1188.31,136
1187.34,139
1186.38,135
1185.41,133
1184.45,138
1183.49,146
1182.52,151
1181.56,155
1180.59,164
1179.63,182
1178.66,209
1177.70,235
1176.74,252
1175.77,263
1174.81,286
1173.84,318
1172.88,363
1171.91,422
1170.95,474
1169.99,508
1169.02,524
1168.06,514
1167.09,487
1166.13,443
1165.16,381
1164.20,327
1163.24,288
1162.27,259
1161.31,239
1160.34,232
1159.38,234
1158.42,237
1157.45,241
1156.49,240
1155.52,241
1154.56,247
1153.59,252
1152.63,246
1151.67,226
1150.70,201
1149.74,190
1148.77,202
1147.81,221
1146.84,240
1145.88,257
1144.92,273
1143.95,286
1142.99,297
1142.02,313
1141.06,337
1140.09,365
1139.13,391
1138.17,429
1137.20,489
1136.24,597
1135.27,779
1134.31,1025
1133.35,1339
1132.38,1717
1131.42,2075
1130.45,2414
1129.49,2653
1128.52,2710
1127.56,2566
1126.60,2271
1125.63,1860
1124.67,1404
1123.70,1121
1122.74,911
1121.77,753
1120.81,647
1119.85,574
1118.88,520
1117.92,492
1116.95,453
1115.99,408
1115.02,381
1114.06,377
1113.10,380
1112.13,376
1111.17,361
1110.20,344
1109.24,335
1108.28,338
1107.31,347
1106.35,354
1105.38,357
1104.42,351
1103.45,332
1102.49,305
1101.53,286
1100.56,285
1099.60,304
1098.63,335
1097.67,364
1096.70,378
1095.74,376
1094.78,359
1093.81,337
1092.85,327
1091.88,342
1090.92,373
1089.95,403
1088.99,416
1088.03,413
1087.06,410
1086.10,429
1085.13,458
1084.17,458
1083.21,444
1082.24,435
1081.28,432
1080.31,430
1079.35,424
1078.38,418
1077.42,414
1076.46,417
1075.49,428
1074.53,440
1073.56,449
1072.60,463
1071.63,488
1070.67,525
1069.71,585
1068.74,674
1067.78,860
1066.81,1114
1065.85,1409
1064.88,1728
1063.92,2024
1062.96,2227
1061.99,2321
1061.03,2282
1060.06,2080
1059.10,1802
1058.13,1513
1057.17,1222
1056.21,961
1055.24,768
1054.28,602
1053.31,485
1052.35,433
1051.39,387
1050.42,350
1049.46,319
1048.49,292
1047.53,272
1046.56,259
1045.60,257
1044.64,258
1043.67,249
1042.71,235
1041.74,222
1040.78,215
1039.81,218
1038.85,228
1037.89,236
1036.92,229
1035.96,217
1034.99,211
1034.03,207
1033.06,197
1032.10,177
1031.14,158
1030.17,156
1029.21,165
1028.24,177
1027.28,184
1026.32,182
1025.35,174
1024.39,164
1023.42,161
1022.46,165
1021.49,173
1020.53,179
1019.57,177
1018.60,169
1017.64,162
1016.67,159
1015.71,161
1014.74,169
1013.78,168
1012.82,150
1011.85,125
1010.89,107
1009.92,102
1008.96,106
1007.99,113
1007.03,123
1006.07,135
1005.10,143
1004.14,137
1003.17,119
1002.21,103
1001.25,104
1000.28,107
999.32,106
998.35,107
997.39,103
996.42,94
995.46,89
994.50,96
993.53,108
992.57,104
991.60,85
990.64,69
989.67,64
988.71,69
987.75,76
986.78,79
985.82,81
984.85,78
983.89,73
982.92,61
981.96,43
981.00,24
980.03,11
979.07,5
978.10,7
977.14,18
976.18,26
975.21,25
974.25,16
973.28,5
972.32,-1
971.35,0
970.39,16
969.43,40
968.46,64
967.50,75
966.53,67
965.57,49
964.60,39
963.64,42
962.68,52
961.71,76
960.75,104
959.78,121
958.82,119
957.85,101
956.89,87
955.93,87
954.96,89
954.00,85
953.03,80
952.07,82
951.11,94
950.14,114
949.18,128
948.21,135
947.25,135
946.28,131
945.32,123
944.36,109
943.39,90
942.43,71
941.46,68
940.50,83
939.53,110
938.57,140
937.61,164
936.64,175
935.68,175
934.71,172
933.75,175
932.78,184
931.82,195
930.86,202
929.89,200
928.93,191
927.96,181
927.00,175
926.04,175
925.07,182
924.11,194
923.14,203
922.18,202
921.21,199
920.25,206
919.29,211
918.32,210
917.36,202
916.39,193
915.43,183
914.46,176
913.50,187
912.54,195
911.57,194
910.61,184
909.64,173
908.68,169
907.71,175
906.75,174
905.79,151
904.82,121
903.86,103
902.89,107
901.93,128
900.96,151
900.00,158
899.04,155
898.07,143
897.11,129
896.14,122
895.18,128
894.22,148
893.25,174
892.29,203
891.32,230
890.36,257
889.39,280
888.43,296
887.47,304
886.50,311
885.54,318
884.57,316
883.61,309
882.64,302
881.68,298
880.72,282
879.75,246
878.79,209
877.82,192
876.86,195
875.89,212
874.93,235
873.97,254
873.00,256
872.04,247
871.07,245
870.11,251
869.15,254
868.18,249
867.22,240
866.25,230
865.29,206
864.32,189
863.36,195
862.40,214
861.43,227
860.47,222
859.50,202
858.54,170
857.57,140
856.61,117
855.65,102
854.68,94
853.72,95
852.75,100
851.79,99
850.82,95
849.86,97
848.90,105
847.93,116
846.97,125
846.00,135
845.04,139
844.08,126
843.11,106
842.15,96
841.18,103
840.22,124
839.25,137
838.29,139
837.33,131
836.36,106
835.40,69
834.43,43
833.47,65
832.50,100
831.54,94
830.58,84
829.61,85
828.65,91
827.68,89
826.72,77
825.75,62
824.79,54
823.83,53
822.86,57
821.90,58
820.93,52
819.97,36
819.01,21
818.04,8
817.08,-0
816.11,-2
815.15,5
814.18,19
813.22,35
812.26,35
811.29,20
810.33,6
809.36,-1
808.40,-4
807.43,-7
806.47,-9
805.51,-12
804.54,-21
803.58,-31
802.61,-34
801.65,-28
800.68,-11
799.72,10
798.76,24
797.79,22
796.83,4
795.86,-22
794.90,-44
793.94,-49
792.97,-40
792.01,-32
791.04,-30
790.08,-37
789.11,-47
788.15,-54
787.19,-47
786.22,-36
785.26,-28
784.29,-25
783.33,-26
782.36,-29
781.40,-25
780.44,-8
779.47,-4
778.51,-12
777.54,-20
776.58,-21
775.61,-22
774.65,-30
773.69,-41
772.72,-59
771.76,-72
770.79,-70
769.83,-50
768.87,-23
767.90,-6
766.94,2
765.97,6
765.01,9
764.04,13
763.08,16
762.12,12
761.15,5
760.19,6
759.22,7
758.26,-2
757.29,-21
756.33,-50
755.37,-87
754.40,-95
753.44,-76
752.47,-54
751.51,-46
750.54,-55
749.58,-65
748.62,-61
747.65,-50
746.69,-39
745.72,-36
744.76,-39
743.79,-42
742.83,-50
741.87,-59
740.90,-55
739.94,-43
738.97,-31
738.01,-23
737.05,-16
736.08,-12
735.12,-8
734.15,-0
733.19,9
732.22,16
731.26,13
730.30,9
729.33,21
728.37,47
727.40,70
726.44,76
725.47,62
724.51,39
723.55,13
722.58,-5
721.62,-15
720.65,-17
719.69,-15
718.72,-15
717.76,-16
716.80,-14
715.83,-7
714.87,5
713.90,14
712.94,12
711.98,-2
711.01,-13
710.05,-17
709.08,-12
708.12,1
707.15,21
706.19,35
705.23,39
704.26,39
703.30,37
702.33,36
701.37,34
700.40,26
699.44,5
698.48,-14
697.51,-24
696.55,-26
695.58,-19
694.62,-9
693.65,1
692.69,3
691.73,-2
690.76,-12
689.80,-27
688.83,-52
687.87,-45
686.91,103
685.94,152
684.98,6
684.01,-164
683.05,-85
682.08,153
681.12,127
680.16,19
679.19,-35
678.23,-9
677.26,43
676.30,57
675.33,56
674.37,48
673.41,36
672.44,28
671.48,25
670.51,18
669.55,-4
668.58,-20
667.62,-29
666.66,-29
665.69,-20
664.73,-2
663.76,17
662.80,24
661.84,24
660.87,23
659.91,22
658.94,22
657.98,16
657.01,8
656.05,7
655.09,12
654.12,20
653.16,24
652.19,25
651.23,23
650.26,12
649.30,0
648.34,-3
647.37,1
646.41,5
645.44,9
644.48,18
643.51,27
642.55,32
641.59,27
640.62,14
639.66,-5
638.69,-17
637.73,-16
636.77,-4
635.80,12
634.84,27
633.87,40
632.91,46
631.94,44
630.98,36
630.02,23
629.05,4
628.09,-11
627.12,-12
626.16,-7
625.19,-1
624.23,-2
623.27,-9
622.30,-21
621.34,-34
620.37,-43
619.41,-45
618.44,-40
617.48,-32
616.52,-24
615.55,-15
614.59,-6
613.62,-1
612.66,-2
611.70,-13
610.73,-25
609.77,-31
608.80,-30
607.84,-23
606.87,-11
605.91,6
604.95,21
603.98,26
603.02,25
602.05,18
601.09,11
600.12,3
599.16,-2
598.20,-7
597.23,-14
596.27,-26
595.30,-39
594.34,-45
593.37,-41
592.41,-25
591.45,-4
590.48,11
589.52,8
588.55,-17
587.59,-40
586.62,-47
585.66,-45
584.70,-43
583.73,-42
582.77,-35
581.80,-11
580.84,10
579.88,16
578.91,10
577.95,1
576.98,1
576.02,12
575.05,31
574.09,48
573.13,55
572.16,48
571.20,31
570.23,14
569.27,2
568.30,-6
567.34,-8
566.38,-4
565.41,5
564.45,12
563.48,16
562.52,17
561.55,14
560.59,2
559.63,-16
558.66,-27
557.70,-27
556.73,-14
555.77,5
554.81,18
553.84,10
552.88,4
551.91,5
550.95,12
549.98,22
549.02,31
548.06,36
547.09,35
546.13,27
545.16,14
544.20,2
543.23,0
542.27,10
541.31,23
540.34,25
539.38,12
538.41,-12
537.45,-30
536.48,-37
535.52,-36
534.56,-30
533.59,-20
532.63,-8
531.66,1
530.70,5
529.74,7
528.77,10
527.81,14
526.84,18
525.88,18
524.91,15
523.95,10
522.99,5
522.02,3
521.06,8
520.09,14
519.13,15
518.16,13
517.20,6
516.24,-4
515.27,-21
514.31,-32
513.34,-28
512.38,-11
511.41,9
510.45,16
509.49,1
508.52,-11
507.56,-11
506.59,3
505.63,22
504.67,32
503.70,25
502.74,23
501.77,28
500.81,35
499.84,32
498.88,21
497.92,8
496.95,-2
495.99,-7
495.02,-9
494.06,-8
493.09,-6
492.13,-3
491.17,0
490.20,5
489.24,13
488.27,29
487.31,51
486.34,73
485.38,88
484.42,95
483.45,94
482.49,89
481.52,89
480.56,83
479.60,68
478.63,45
477.67,28
476.70,20
475.74,10
474.77,-2
473.81,-14
472.85,-23
471.88,-27
470.92,-24
469.95,-17
468.99,-6
468.02,2
467.06,6
466.10,8
465.13,3
464.17,-5
463.20,-8
462.24,-2
461.27,7
460.31,4
459.35,-7
458.38,-17
457.42,-22
456.45,-16
455.49,-2
454.53,13
453.56,20
452.60,17
451.63,4
450.67,-5
449.70,-10
448.74,-10
447.78,-4
446.81,8
445.85,17
444.88,15
443.92,10
442.95,8
441.99,8
441.03,9
440.06,5
439.10,-4
438.13,-16
437.17,-26
436.20,-33
435.24,-36
434.28,-37
433.31,-43
432.35,-47
431.38,-45
430.42,-35
429.45,-29
428.49,-24
427.53,-18
426.56,-15
425.60,-20
424.63,-34
423.67,-42
422.71,-41
421.74,-33
420.78,-23
419.81,-14
418.85,-11
417.88,-14
416.92,-21
415.96,-31
414.99,-41
414.03,-52
413.06,-60
412.10,-60
411.13,-52
410.17,-43
409.21,-41
408.24,-48
407.28,-47
406.31,-43
405.35,-39
404.38,-36
403.42,-33
402.46,-28
401.49,-24
400.53,-24
399.56,-27
398.60,-31
397.64,-42
396.67,-55
395.71,-63
394.74,-59
393.78,-44
392.81,-27
391.85,-14
390.89,-12
389.92,-21
388.96,-37
387.99,-47
387.03,-39
386.06,-25
385.10,-12
384.14,-5
383.17,-8
382.21,-14
381.24,-17
380.28,-21
379.31,-29
378.35,-42
377.39,-54
376.42,-54
375.46,-45
374.49,-35
373.53,-31
372.57,-36
371.60,-39
370.64,-38
369.67,-39
368.71,-44
367.74,-51
366.78,-55
365.82,-55
364.85,-49
363.89,-38
362.92,-24
361.96,-16
360.99,-22
360.03,-37
359.07,-52
358.10,-60
357.14,-53
356.17,-31
355.21,-3
354.24,24
353.28,42
352.32,41
351.35,11
350.39,-21
349.42,-43
348.46,-47
347.50,-36
346.53,-22
345.57,-16
344.60,-14
343.64,-13
342.67,-11
341.71,-11
340.75,-11
339.78,-16
338.82,-22
337.85,-35
336.89,-49
335.92,-43
334.96,-31
334.00,-24
333.03,-29
332.07,-41
331.10,-44
330.14,-42
329.17,-36
328.21,-25
327.25,-10
326.28,3
325.32,10
324.35,9
323.39,4
322.43,-3
321.46,-7
320.50,-9
319.53,-14
318.57,-26
317.60,-41
316.64,-51
315.68,-48
314.71,-35
313.75,-21
312.78,-10
311.82,-2
310.85,4
309.89,6
308.93,-1
307.96,-18
307.00,-46
306.03,-72
305.07,-84
304.10,-77
303.14,-53
302.18,-22
301.21,-5
300.25,-4
299.28,-15
298.32,-32
297.36,-44
296.39,-41
295.43,-27
294.46,-9
293.50,4
292.53,5
291.57,-6
290.61,-15
289.64,-20
288.68,-21
287.71,-18
286.75,-12
285.78,-5
284.82,-0
283.86,2
282.89,2
281.93,1
280.96,-0
280.00,0
279.03,1
278.07,-2
277.11,-10
276.14,-17
275.18,-21
274.21,-21
273.25,-17
272.28,-5
271.32,9
270.36,15
269.39,13
268.43,5
267.46,-1
266.50,-2
265.54,-1
264.57,-2
263.61,9
262.64,6
261.68,2
260.71,1
259.75,7
258.79,18
257.82,26
256.86,24
255.89,19
254.93,12
253.96,5
253.00,0
252.04,6
251.07,14
250.11,20
249.14,24
248.18,26
247.21,28
246.25,29
245.29,27
244.32,22
243.36,15
242.39,8
241.43,3
240.47,-0
239.50,1
238.54,11
237.57,23
236.61,24
235.64,19
234.68,15
233.72,24
232.75,38
231.79,55
230.82,76
229.86,99
228.89,119
227.93,142
226.97,162
226.00,173
225.04,171
224.07,157
223.11,127
222.14,89
221.18,55
220.22,30
219.25,9
218.29,6
217.32,16
216.36,24
215.40,21
214.43,3
213.47,-15
212.50,-23
211.54,-19
210.57,-3
209.61,20
208.65,38
207.68,42
206.72,30
205.75,7
204.79,-17
203.82,-23
202.86,-17
201.90,-4
200.93,7
199.97,0
199.00,5
198.04,8
197.07,11
196.11,16
195.15,20
194.18,20
193.22,18
192.25,15
191.29,13
190.33,12
189.36,10
188.40,5
187.43,-3
186.47,-11
185.50,-13
184.54,-10
183.58,-9
182.61,-14
181.65,-25
180.68,-39
179.72,-48
178.75,-49
177.79,-42
176.83,-34
175.86,-26
174.90,-15
173.93,-3
172.97,8
172.00,12
171.04,7
170.08,-4
169.11,-14
168.15,-24
167.18,-32
166.22,-36
165.26,-34
164.29,-25
163.33,-11
162.36,-0
161.40,7
160.43,13
159.47,18
158.51,23
157.54,24
156.58,29
155.61,35
154.65,39
153.68,39
152.72,39
151.76,36
150.79,31
149.83,27
148.86,30
147.90,40
146.93,52
145.97,63
145.01,70
144.04,73
143.08,67
142.11,61
141.15,56
140.19,52
139.22,50
138.26,53
137.29,57
136.33,59
135.36,53
134.40,31
133.44,9
132.47,-12
131.51,-24
130.54,-22
129.58,-6
128.61,12
127.65,23
126.69,23
125.72,12
124.76,4
123.79,-1
122.83,-3
121.86,-1
120.90,9
119.94,24
118.97,37
118.01,50
117.04,65
116.08,75
115.11,74
114.15,71
113.19,71
112.22,78
111.26,94
110.29,112
109.33,132
108.37,152
107.40,171
106.44,181
105.47,184
104.51,180
103.54,171
102.58,161
101.62,156
100.65,153
99.69,150
98.72,145
97.76,136
96.79,121
95.83,106
94.87,94
93.90,90
92.94,96
91.97,102
91.01,105
90.04,105
89.08,102
88.12,91
87.15,75
86.19,59
85.22,46
84.26,38
83.30,9
82.33,3
81.37,-4
80.40,-15
79.44,-30
78.47,-37
77.51,-35
76.55,-30
