Created As Omnic File,PLAS 084
Raman Shift / cm-1,INT
3418.58,-58
3417.61,-49
3416.65,-35
3415.68,-25
3414.72,-27
3413.76,-33
3412.79,-36
3411.83,-97
3410.86,-128
3409.90,-140
3408.94,-111
3407.97,-83
3407.01,-78
3406.04,-83
3405.08,-80
3404.11,-65
3403.15,-47
3402.19,-41
3401.22,-60
3400.26,-91
3399.29,-103
3398.33,-104
3397.36,-105
3396.40,-107
3395.44,-102
3394.47,-85
3393.51,-74
3392.54,-64
3391.58,0
3390.61,36
3389.65,47
3388.69,19
3387.72,-13
3386.76,-30
3385.79,-26
3384.83,-19
3383.87,-26
3382.90,-30
3381.94,-19
3380.97,-10
3380.01,-14
3379.04,-29
3378.08,-30
3377.12,-4
3376.15,37
3375.19,57
3374.22,65
3373.26,76
3372.29,74
3371.33,56
3370.37,35
3369.40,17
3368.44,13
3367.47,21
3366.51,0
3365.54,-18
3364.58,-9
3363.62,7
3362.65,18
3361.69,24
3360.72,19
3359.76,12
3358.80,13
3357.83,25
3356.87,49
3355.90,59
3354.94,35
3353.97,9
3353.01,-12
3352.05,-26
3351.08,-17
3350.12,6
3349.15,25
3348.19,25
3347.22,15
3346.26,22
3345.30,39
3344.33,40
3343.37,22
3342.40,11
3341.44,8
3340.47,3
3339.51,7
3338.55,6
3337.58,0
3336.62,-8
3335.65,-17
3334.69,-25
3333.73,-26
3332.76,-22
3331.80,-4
3330.83,5
3329.87,-22
3328.90,-65
3327.94,-80
3326.98,-58
3326.01,-27
3325.05,-1
3324.08,-1
3323.12,-27
3322.15,-52
3321.19,-41
3320.23,-10
3319.26,-0
3318.30,-4
3317.33,-8
3316.37,-15
3315.40,-22
3314.44,-21
3313.48,-27
3312.51,-38
3311.55,-43
3310.58,-44
3309.62,-27
3308.66,0
3307.69,2
3306.73,-5
3305.76,-15
3304.80,-33
3303.83,-54
3302.87,-61
3301.91,-59
3300.94,-45
3299.98,-17
3299.01,3
3298.05,13
3297.08,10
3296.12,-9
3295.16,-23
3294.19,-8
3293.23,13
3292.26,32
3291.30,37
3290.33,3
3289.37,-36
3288.41,-31
3287.44,-14
3286.48,-34
3285.51,-68
3284.55,-66
3283.59,-39
3282.62,-14
3281.66,-0
3280.69,-4
3279.73,-8
3278.76,-6
3277.80,-19
3276.84,-47
3275.87,-67
3274.91,-64
3273.94,-48
3272.98,-37
3272.01,-41
3271.05,-46
3270.09,-33
3269.12,-17
3268.16,-15
3267.19,-24
3266.23,-42
3265.26,-45
3264.30,-28
3263.34,-13
3262.37,-38
3261.41,-32
3260.44,-27
3259.48,-23
3258.51,-22
3257.55,-25
3256.59,-30
3255.62,-39
3254.66,-46
3253.69,-38
3252.73,-27
3251.77,-32
3250.80,-51
3249.84,-61
3248.87,-56
3247.91,-44
3246.94,-23
3245.98,-4
3245.02,4
3244.05,9
3243.09,13
3242.12,9
3241.16,0
3240.19,-3
3239.23,-0
3238.27,-1
3237.30,4
3236.34,9
3235.37,14
3234.41,36
3233.44,21
3232.48,-2
3231.52,-2
3230.55,4
3229.59,9
3228.62,6
3227.66,-3
3226.70,-13
3225.73,0
3224.77,5
3223.80,26
3222.84,30
3221.87,16
3220.91,5
3219.95,9
3218.98,15
3218.02,12
3217.05,8
3216.09,17
3215.12,51
3214.16,91
3213.20,83
3212.23,38
3211.27,34
3210.30,35
3209.34,24
3208.37,13
3207.41,-0
3206.45,-9
3205.48,4
3204.52,15
3203.55,12
3202.59,12
3201.63,10
3200.66,19
3199.70,36
3198.73,26
3197.77,-3
3196.80,-14
3195.84,3
3194.88,21
3193.91,21
3192.95,11
3191.98,-6
3191.02,-15
3190.05,-22
3189.09,-14
3188.13,-5
3187.16,-5
3186.20,-1
3185.23,12
3184.27,14
3183.30,-1
3182.34,-12
3181.38,-9
3180.41,3
3179.45,5
3178.48,7
3177.52,16
3176.56,32
3175.59,40
3174.63,18
3173.66,-20
3172.70,-45
3171.73,-35
3170.77,9
3169.81,47
3168.84,53
3167.88,33
3166.91,6
3165.95,-16
3164.98,-49
3164.02,-75
3163.06,-63
3162.09,-27
3161.13,-5
3160.16,3
3159.20,-6
3158.23,-34
3157.27,-41
3156.31,-23
3155.34,2
3154.38,29
3153.41,26
3152.45,-5
3151.49,-23
3150.52,-26
3149.56,-27
3148.59,-26
3147.63,-20
3146.66,0
3145.70,31
3144.74,24
3143.77,-3
3142.81,1
3141.84,16
3140.88,20
3139.91,10
3138.95,-15
3137.99,-28
3137.02,-13
3136.06,-6
3135.09,-27
3134.13,-42
3133.16,-34
3132.20,-22
3131.24,-27
3130.27,-40
3129.31,-45
3128.34,-39
3127.38,-32
3126.42,-37
3125.45,-33
3124.49,-6
3123.52,17
3122.56,16
3121.59,-13
3120.63,-42
3119.67,-45
3118.70,-35
3117.74,-33
3116.77,-37
3115.81,-44
3114.84,-56
3113.88,-64
3112.92,-57
3111.95,-37
3110.99,-13
3110.02,2
3109.06,3
3108.09,-7
3107.13,-31
3106.17,-68
3105.20,-91
3104.24,-86
3103.27,-63
3102.31,-29
3101.34,-4
3100.38,2
3099.42,-0
3098.45,-8
3097.49,-17
3096.52,-13
3095.56,-4
3094.60,-9
3093.63,-23
3092.67,-28
3091.70,-16
3090.74,-13
3089.77,-8
3088.81,26
3087.85,53
3086.88,49
3085.92,33
3084.95,20
3083.99,26
3083.02,45
3082.06,51
3081.10,37
3080.13,25
3079.17,29
3078.20,26
3077.24,12
3076.27,17
3075.31,37
3074.35,45
3073.38,24
3072.42,8
3071.45,29
3070.49,57
3069.53,67
3068.56,65
3067.60,56
3066.63,48
3065.67,49
3064.70,51
3063.74,48
3062.78,50
3061.81,51
3060.85,33
3059.88,21
3058.92,42
3057.95,79
3056.99,100
3056.03,90
3055.06,61
3054.10,46
3053.13,50
3052.17,56
3051.20,47
3050.24,27
3049.28,29
3048.31,29
3047.35,2
3046.38,-7
3045.42,11
3044.46,8
3043.49,-12
3042.53,-19
3041.56,7
3040.60,37
3039.63,42
3038.67,39
3037.71,39
3036.74,34
3035.78,21
3034.81,3
3033.85,-3
3032.88,8
3031.92,44
3030.96,58
3029.99,13
3029.03,-12
3028.06,-11
3027.10,-2
3026.13,12
3025.17,14
3024.21,4
3023.24,5
3022.28,18
3021.31,6
3020.35,-42
3019.39,-73
3018.42,-57
3017.46,-16
3016.49,17
3015.53,27
3014.56,19
3013.60,17
3012.64,22
3011.67,7
3010.71,-11
3009.74,-11
3008.78,-11
3007.81,-14
3006.85,-3
3005.89,21
3004.92,32
3003.96,0
3002.99,-18
3002.03,-8
3001.06,-8
3000.10,-35
2999.14,-40
2998.17,-14
2997.21,-8
2996.24,-21
2995.28,-19
2994.32,-0
2993.35,20
2992.39,14
2991.42,6
2990.46,26
2989.49,51
2988.53,62
2987.57,72
2986.60,64
2985.64,25
2984.67,-9
2983.71,-13
2982.74,1
2981.78,1
2980.82,-6
2979.85,-2
2978.89,8
2977.92,10
2976.96,7
2975.99,6
2975.03,11
2974.07,17
2973.10,17
2972.14,4
2971.17,-20
2970.21,-46
2969.25,-47
2968.28,-25
2967.32,5
2966.35,20
2965.39,5
2964.42,-17
2963.46,-32
2962.50,-32
2961.53,-20
2960.57,-21
2959.60,-34
2958.64,-46
2957.67,-35
2956.71,12
2955.75,78
2954.78,94
2953.82,91
2952.85,108
2951.89,161
2950.92,244
2949.96,349
2949.00,467
2948.03,563
2947.07,640
2946.10,745
2945.14,875
2944.17,1003
2943.21,1143
2942.25,1300
2941.28,1454
2940.32,1608
2939.35,1769
2938.39,1902
2937.43,2005
2936.46,2117
2935.50,2228
2934.53,2346
2933.57,2479
2932.60,2594
2931.64,2674
2930.68,2727
2929.71,2769
2928.75,2806
2927.78,2849
2926.82,2904
2925.85,2935
2924.89,2918
2923.93,2889
2922.96,2889
2922.00,2914
2921.03,2942
2920.07,2961
2919.10,2984
2918.14,3034
2917.18,3118
2916.21,3197
2915.25,3226
2914.28,3241
2913.32,3316
2912.36,3444
2911.39,3593
2910.43,3750
2909.46,3927
2908.50,4132
2907.53,4350
2906.57,4554
2905.61,4725
2904.64,4882
2903.68,5070
2902.71,5309
2901.75,5550
2900.78,5744
2899.82,5887
2898.86,6021
2897.89,6176
2896.93,6339
2895.96,6467
2895.00,6569
2894.03,6709
2893.07,6889
2892.11,7088
2891.14,7353
2890.18,7721
2889.21,8180
2888.25,8798
2887.29,9676
2886.32,10930
2885.36,12513
2884.39,14339
2883.43,16084
2882.46,17408
2881.50,18135
2880.54,17712
2879.57,16504
2878.61,14595
2877.64,12412
2876.68,10574
2875.71,9095
2874.75,8112
2873.79,7448
2872.82,6985
2871.86,6650
2870.89,6377
2869.93,6198
2868.96,6117
2868.00,6126
2867.04,6169
2866.07,6245
2865.11,6339
2864.14,6466
2863.18,6658
2862.22,6851
2861.25,7003
2860.29,7195
2859.32,7500
2858.36,7860
2857.39,8211
2856.43,8573
2855.47,8990
2854.50,9443
2853.54,9888
2852.57,10336
2851.61,10800
2850.64,11223
2849.68,11612
2848.72,11900
2847.75,11998
2846.79,11897
2845.82,11580
2844.86,11080
2843.89,10383
2842.93,9538
2841.97,8593
2841.00,7624
2840.04,6664
2839.07,5779
2838.11,4983
2837.15,4251
2836.18,3603
2835.22,3049
2834.25,2574
2833.29,2153
2832.32,1788
2831.36,1512
2830.40,1313
2829.43,1122
2828.47,925
2827.50,768
2826.54,670
2825.57,573
2824.61,451
2823.65,346
2822.68,293
2821.72,308
2820.75,355
2819.79,361
2818.82,296
2817.86,211
2816.90,146
2815.93,105
2814.97,97
2814.00,115
2813.04,111
2812.08,72
2811.11,42
2810.15,41
2809.18,53
2808.22,73
2807.25,77
2806.29,57
2805.33,48
2804.36,52
2803.40,58
2802.43,64
2801.47,69
2800.50,64
2799.54,47
2798.58,29
2797.61,35
2796.65,33
2795.68,25
2794.72,25
2793.75,29
2792.79,33
2791.83,35
2790.86,28
2789.90,18
2788.93,17
2787.97,29
2787.00,66
2786.04,122
2785.08,160
2784.11,152
2783.15,115
2782.18,75
2781.22,51
2780.26,61
2779.29,77
2778.33,72
2777.36,72
2776.40,86
2775.43,74
2774.47,41
2773.51,67
2772.54,111
2771.58,127
2770.61,101
2769.65,52
2768.68,36
2767.72,54
2766.76,61
2765.79,47
2764.83,22
2763.86,18
2762.90,57
2761.93,92
2760.97,75
2760.01,54
2759.04,55
2758.08,60
2757.11,65
2756.15,45
2755.19,8
2754.22,-15
2753.26,-14
2752.29,2
2751.33,19
2750.36,38
2749.40,60
2748.44,56
2747.47,8
2746.51,-70
2745.54,-136
2744.58,-166
2743.61,-137
2742.65,-80
2741.69,-49
2740.72,-49
2739.76,-59
2738.79,-71
2737.83,-77
2736.86,-74
2735.90,-73
2734.94,-58
2733.97,-7
2733.01,53
2732.04,89
2731.08,110
2730.12,136
2729.15,183
2728.19,254
2727.22,339
2726.26,417
2725.29,466
2724.33,472
2723.37,456
2722.40,452
2721.44,449
2720.47,408
2719.51,360
2718.54,390
2717.58,468
2716.62,522
2715.65,518
2714.69,463
2713.72,385
2712.76,327
2711.79,305
2710.83,271
2709.87,222
2708.90,217
2707.94,218
2706.97,167
2706.01,87
2705.05,29
2704.08,30
2703.12,70
2702.15,95
2701.19,82
2700.22,40
2699.26,-8
2698.30,-35
2697.33,-24
2696.37,15
2695.40,17
2694.44,-45
2693.47,-91
2692.51,-79
2691.55,-42
2690.58,-3
2689.62,33
2688.65,53
2687.69,39
2686.72,7
2685.76,5
2684.80,28
2683.83,42
2682.87,46
2681.90,28
2680.94,2
2679.98,-1
2679.01,15
2678.05,36
2677.08,51
2676.12,60
2675.15,68
2674.19,60
2673.23,36
2672.26,0
2671.30,-10
2670.33,-6
2669.37,-18
2668.40,-40
2667.44,-35
2666.48,-7
2665.51,19
2664.55,33
2663.58,41
2662.62,41
2661.65,38
2660.69,47
2659.73,45
2658.76,42
2657.80,95
2656.83,167
2655.87,194
2654.91,178
2653.94,149
2652.98,138
2652.01,135
2651.05,130
2650.08,137
2649.12,138
2648.16,108
2647.19,63
2646.23,44
2645.26,67
2644.30,93
2643.33,123
2642.37,178
2641.41,239
2640.44,250
2639.48,181
2638.51,88
2637.55,48
2636.58,39
2635.62,2
2634.66,-39
2633.69,-50
2632.73,-61
2631.76,-83
2630.80,-73
2629.83,-12
2628.87,83
2627.91,168
2626.94,186
2625.98,130
2625.01,45
2624.05,-18
2623.09,-37
2622.12,-36
2621.16,-52
2620.19,-50
2619.23,-28
2618.26,-20
2617.30,-18
2616.34,5
2615.37,32
2614.41,19
2613.44,-24
2612.48,-47
2611.51,-38
2610.55,-21
2609.59,6
2608.62,30
2607.66,37
2606.69,12
2605.73,-10
2604.76,-13
2603.80,8
2602.84,29
2601.87,29
2600.91,22
2599.94,22
2598.98,24
2598.02,21
2597.05,17
2596.09,27
2595.12,46
2594.16,38
2593.19,29
2592.23,52
2591.27,76
2590.30,70
2589.34,50
2588.37,47
2587.41,63
2586.44,85
2585.48,105
2584.52,82
2583.55,10
2582.59,-51
2581.62,-63
2580.66,-13
2579.69,53
2578.73,78
2577.77,43
2576.80,-7
2575.84,-23
2574.87,-23
2573.91,-20
2572.95,18
2571.98,58
2571.02,0
2570.05,-50
2569.09,-47
2568.12,4
2567.16,65
2566.20,77
2565.23,44
2564.27,11
2563.30,-9
2562.34,-12
2561.37,19
2560.41,51
2559.45,44
2558.48,9
2557.52,-25
2556.55,-40
2555.59,-17
2554.62,29
2553.66,52
2552.70,32
2551.73,-5
2550.77,-42
2549.80,-85
2548.84,-132
2547.88,-165
2546.91,-138
2545.95,-75
2544.98,-53
2544.02,-26
2543.05,20
2542.09,47
2541.13,42
2540.16,7
2539.20,-12
2538.23,-24
2537.27,15
2536.30,68
2535.34,86
2534.38,74
2533.41,59
2532.45,36
2531.48,8
2530.52,-21
2529.55,-38
2528.59,-13
2527.63,40
2526.66,81
2525.70,97
2524.73,102
2523.77,79
2522.81,8
2521.84,-61
2520.88,-54
2519.91,9
2518.95,38
2517.98,-0
2517.02,-38
2516.06,-32
2515.09,-5
2514.13,36
2513.16,80
2512.20,79
2511.23,29
2510.27,-9
2509.31,-17
2508.34,1
2507.38,45
2506.41,58
2505.45,34
2504.48,12
2503.52,11
2502.56,38
2501.59,64
2500.63,58
2499.66,42
2498.70,60
2497.74,114
2496.77,151
2495.81,153
2494.84,150
2493.88,125
2492.91,71
2491.95,31
2490.99,26
2490.02,56
2489.06,87
2488.09,81
2487.13,43
2486.16,4
2485.20,-26
2484.24,-31
2483.27,18
2482.31,91
2481.34,133
2480.38,127
2479.41,88
2478.45,45
2477.49,21
2476.52,14
2475.56,0
2474.59,-9
2473.63,-9
2472.66,-9
2471.70,-33
2470.74,-48
2469.77,-33
2468.81,-20
2467.84,-1
2466.88,51
2465.92,107
2464.95,107
2463.99,77
2463.02,69
2462.06,83
2461.09,75
2460.13,35
2459.17,1
2458.20,-3
2457.24,-14
2456.27,-60
2455.31,-82
2454.34,-27
2453.38,57
2452.42,109
2451.45,104
2450.49,61
2449.52,20
2448.56,-3
2447.59,-13
2446.63,-7
2445.67,13
2444.70,41
2443.74,107
2442.77,192
2441.81,233
2440.85,234
2439.88,222
2438.92,190
2437.95,149
2436.99,123
2436.02,110
2435.06,103
2434.10,113
2433.13,143
2432.17,182
2431.20,225
2430.24,221
2429.27,186
2428.31,171
2427.35,148
2426.38,92
2425.42,31
2424.45,4
2423.49,22
2422.52,54
2421.56,90
2420.60,129
2419.63,150
2418.67,143
2417.70,130
2416.74,117
2415.78,72
2414.81,1
2413.85,-58
2412.88,-108
2411.92,-128
2410.95,-80
2409.99,-1
2409.03,28
2408.06,6
2407.10,-37
2406.13,-99
2405.17,-124
2404.20,-71
2403.24,12
2402.28,59
2401.31,53
2400.35,21
2399.38,5
2398.42,5
2397.45,1
2396.49,-5
2395.53,-9
2394.56,-26
2393.60,-50
2392.63,-74
2391.67,-126
2390.71,-171
2389.74,-147
2388.78,-87
2387.81,-33
2386.85,-11
2385.88,-35
2384.92,-82
2383.96,-136
2382.99,-193
2382.03,-225
2381.06,-188
2380.10,-113
2379.13,-52
2378.17,0
2377.21,35
2376.24,42
2375.28,30
2374.31,-17
2373.35,-95
2372.38,-144
2371.42,-129
2370.46,-79
2369.49,-44
2368.53,-33
2367.56,-6
2366.60,47
2365.64,80
2364.67,67
2363.71,5
2362.74,-69
2361.78,-69
2360.81,-3
2359.85,50
2358.89,42
2357.92,-7
2356.96,-40
2355.99,-21
2355.03,21
2354.06,77
2353.10,119
2352.14,110
2351.17,78
2350.21,64
2349.24,75
2348.28,105
2347.31,142
2346.35,150
2345.39,108
2344.42,49
2343.46,23
2342.49,40
2341.53,52
2340.57,38
2339.60,46
2338.64,99
2337.67,156
2336.71,157
2335.74,107
2334.78,61
2333.82,28
2332.85,0
2331.89,-21
2330.92,-5
2329.96,41
2328.99,109
2328.03,170
2327.07,183
2326.10,173
2325.14,173
2324.17,169
2323.21,156
2322.24,120
2321.28,71
2320.32,51
2319.35,59
2318.39,68
2317.42,77
2316.46,102
2315.49,131
2314.53,149
2313.57,166
2312.60,158
2311.64,107
2310.67,86
2309.71,111
2308.75,111
2307.78,76
2306.82,45
2305.85,28
2304.89,16
2303.92,18
2302.96,36
2302.00,44
2301.03,20
2300.07,3
2299.10,26
2298.14,44
2297.17,40
2296.21,49
2295.25,49
2294.28,19
2293.32,7
2292.35,40
2291.39,76
2290.42,81
2289.46,60
2288.50,21
2287.53,-5
2286.57,7
2285.60,45
2284.64,68
2283.68,76
2282.71,67
2281.75,84
2280.78,125
2279.82,152
2278.85,151
2277.89,123
2276.93,88
2275.96,86
2275.00,119
2274.03,139
2273.07,135
2272.10,131
2271.14,142
2270.18,164
2269.21,160
2268.25,126
2267.28,102
2266.32,94
2265.35,91
2264.39,100
2263.43,126
2262.46,163
2261.50,210
2260.53,272
2259.57,334
2258.61,335
2257.64,250
2256.68,155
2255.71,112
2254.75,154
2253.78,272
2252.82,397
2251.86,479
2250.89,518
2249.93,523
2248.96,555
2248.00,616
2247.03,589
2246.07,485
2245.11,415
2244.14,366
2243.18,321
2242.21,284
2241.25,238
2240.28,211
2239.32,211
2238.36,209
2237.39,193
2236.43,161
2235.46,103
2234.50,31
2233.54,-1
2232.57,23
2231.61,67
2230.64,110
2229.68,113
2228.71,66
2227.75,30
2226.79,24
2225.82,7
2224.86,0
2223.89,6
2222.93,31
2221.96,46
2221.00,55
2220.04,62
2219.07,33
2218.11,-41
2217.14,-99
2216.18,-95
2215.21,-39
2214.25,45
2213.29,108
2212.32,96
2211.36,32
2210.39,-14
2209.43,-29
2208.47,-40
2207.50,-55
2206.54,-67
2205.57,-64
2204.61,-22
2203.64,37
2202.68,68
2201.72,83
2200.75,105
2199.79,113
2198.82,91
2197.86,57
2196.89,29
2195.93,-5
2194.97,-66
2194.00,-125
2193.04,-130
2192.07,-78
2191.11,-11
2190.14,37
2189.18,67
2188.22,87
2187.25,91
2186.29,85
2185.32,87
2184.36,95
2183.40,88
2182.43,53
2181.47,-3
2180.50,-56
2179.54,-81
2178.57,-73
2177.61,-45
2176.65,-22
2175.68,-23
2174.72,-61
2173.75,-80
2172.79,-90
2171.82,-93
2170.86,-85
2169.90,-79
2168.93,-82
2167.97,-100
2167.00,-130
2166.04,-151
2165.07,-145
2164.11,-122
2163.15,-95
2162.18,-69
2161.22,-51
2160.25,-59
2159.29,-93
2158.32,-106
2157.36,-72
2156.40,-38
2155.43,-51
2154.47,-91
2153.50,-108
2152.54,-90
2151.58,-61
2150.61,-47
2149.65,-52
2148.68,-59
2147.72,-52
2146.75,-29
2145.79,-1
2144.83,13
2143.86,6
2142.90,-33
2141.93,-90
2140.97,-131
2140.00,-128
2139.04,-105
2138.08,-86
2137.11,-63
2136.15,-40
2135.18,-53
2134.22,-70
2133.25,-61
2132.29,-30
2131.33,-3
2130.36,18
2129.40,20
2128.43,-5
2127.47,-35
2126.51,-45
2125.54,-41
2124.58,-31
2123.61,-15
2122.65,-11
2121.68,-22
2120.72,-28
2119.76,-28
2118.79,-17
2117.83,-4
2116.86,-10
2115.90,-36
2114.93,-67
2113.97,-80
2113.01,-62
2112.04,-35
2111.08,-35
2110.11,-44
2109.15,-18
2108.18,9
2107.22,-11
2106.26,-46
2105.29,-50
2104.33,-24
2103.36,-3
2102.40,-5
2101.44,-0
2100.47,16
2099.51,9
2098.54,0
2097.58,-57
2096.61,-95
2095.65,-119
2094.69,-142
2093.72,-155
2092.76,-129
2091.79,-67
2090.83,-18
2089.86,-6
2088.90,-16
2087.94,-33
2086.97,-45
2086.01,-40
2085.04,-18
2084.08,-5
2083.11,-8
2082.15,-15
2081.19,-26
2080.22,-39
2079.26,-44
2078.29,-24
2077.33,-15
2076.37,3
2075.40,-10
2074.44,-39
2073.47,-62
2072.51,-74
2071.54,-84
2070.58,-99
2069.62,-116
2068.65,-119
2067.69,-109
2066.72,-105
2065.76,-91
2064.79,-50
2063.83,-16
2062.87,-15
2061.90,-31
2060.94,-38
2059.97,-35
2059.01,-43
2058.04,-62
2057.08,-80
2056.12,-100
2055.15,-124
2054.19,-124
2053.22,-98
2052.26,-78
2051.30,-76
2050.33,-76
2049.37,-71
2048.40,-50
2047.44,-16
2046.47,-3
2045.51,-18
2044.55,-27
2043.58,-6
2042.62,22
2041.65,38
2040.69,55
2039.72,73
2038.76,67
2037.80,21
2036.83,-44
2035.87,-76
2034.90,-63
2033.94,-42
2032.97,-33
2032.01,-24
2031.05,-15
2030.08,-23
2029.12,-48
2028.15,-74
2027.19,-75
2026.23,-46
2025.26,-31
2024.30,-45
2023.33,-55
2022.37,-60
2021.40,-62
2020.44,-59
2019.48,-66
2018.51,-89
2017.55,-109
2016.58,-109
2015.62,-105
2014.65,-114
2013.69,-122
2012.73,-109
2011.76,-73
2010.80,-21
2009.83,26
2008.87,50
2007.90,59
2006.94,51
2005.98,4
2005.01,-62
2004.05,-111
2003.08,-127
2002.12,-114
2001.15,-89
2000.19,-67
1999.23,-62
1998.26,-78
1997.30,-107
1996.33,-130
1995.37,-132
1994.41,-117
1993.44,-112
1992.48,-118
1991.51,-112
1990.55,-98
1989.58,-90
1988.62,-85
1987.66,-67
1986.69,-39
1985.73,-22
1984.76,-27
1983.80,-35
1982.83,-32
1981.87,-25
1980.91,-16
1979.94,-31
1978.98,-81
1978.01,-128
1977.05,-133
1976.08,-100
1975.12,-67
1974.16,-62
1973.19,-82
1972.23,-103
1971.26,-102
1970.30,-71
1969.34,-28
1968.37,-7
1967.41,-16
1966.44,-32
1965.48,-43
1964.51,-44
1963.55,-33
1962.59,-20
1961.62,-22
1960.66,-48
1959.69,-95
1958.73,-130
1957.76,-137
1956.80,-130
1955.84,-109
1954.87,-66
1953.91,-32
1952.94,-33
1951.98,-53
1951.01,-66
1950.05,-74
1949.09,-70
1948.12,-54
1947.16,-44
1946.19,-51
1945.23,-68
1944.27,-80
1943.30,-73
1942.34,-41
1941.37,2
1940.41,27
1939.44,20
1938.48,-4
1937.52,-22
1936.55,-37
1935.59,-55
1934.62,-60
1933.66,-52
1932.69,-38
1931.73,-19
1930.77,-1
1929.80,-3
1928.84,-22
1927.87,-34
1926.91,-34
1925.94,-29
1924.98,-34
1924.02,-43
1923.05,-32
1922.09,-10
1921.12,3
1920.16,7
1919.20,16
1918.23,36
1917.27,59
1916.30,68
1915.34,52
1914.37,27
1913.41,8
1912.45,-13
1911.48,-35
1910.52,-36
1909.55,-25
1908.59,-24
1907.62,-40
1906.66,-61
1905.70,-66
1904.73,-48
1903.77,-33
1902.80,-30
1901.84,-17
1900.87,8
1899.91,12
1898.95,-13
1897.98,-24
1897.02,9
1896.05,61
1895.09,84
1894.13,75
1893.16,53
1892.20,31
1891.23,11
1890.27,-8
1889.30,-21
1888.34,-19
1887.38,1
1886.41,30
1885.45,57
1884.48,75
1883.52,67
1882.55,35
1881.59,11
1880.63,14
1879.66,26
1878.70,35
1877.73,38
1876.77,26
1875.80,11
1874.84,19
1873.88,50
1872.91,77
1871.95,86
1870.98,74
1870.02,41
1869.06,16
1868.09,28
1867.13,53
1866.16,64
1865.20,62
1864.23,49
1863.27,31
1862.31,18
1861.34,7
1860.38,-15
1859.41,-35
1858.45,-31
1857.48,-3
1856.52,23
1855.56,33
1854.59,41
1853.63,56
1852.66,71
1851.70,73
1850.73,44
1849.77,-1
1848.81,-28
1847.84,-16
1846.88,20
1845.91,53
1844.95,72
1843.98,86
1843.02,97
1842.06,105
1841.09,100
1840.13,59
1839.16,0
1838.20,-37
1837.24,-37
1836.27,-8
1835.31,23
1834.34,27
1833.38,13
1832.41,7
1831.45,4
1830.49,-15
1829.52,-39
1828.56,-41
1827.59,-14
1826.63,18
1825.66,39
1824.70,59
1823.74,67
1822.77,52
1821.81,28
1820.84,-7
1819.88,-39
1818.91,-44
1817.95,-29
1816.99,-15
1816.02,-14
1815.06,-19
1814.09,-23
1813.13,-26
1812.17,-27
1811.20,-8
1810.24,31
1809.27,55
1808.31,48
1807.34,40
1806.38,36
1805.42,21
1804.45,4
1803.49,-7
1802.52,-16
1801.56,-23
1800.59,-25
1799.63,-20
1798.67,-4
1797.70,16
1796.74,36
1795.77,42
1794.81,26
1793.84,7
1792.88,0
1791.92,-0
1790.95,1
1789.99,-0
1789.02,-12
1788.06,-32
1787.10,-48
1786.13,-50
1785.17,-34
1784.20,2
1783.24,47
1782.27,74
1781.31,67
1780.35,49
1779.38,34
1778.42,22
1777.45,21
1776.49,34
1775.52,43
1774.56,31
1773.60,4
1772.63,-23
1771.67,-35
1770.70,-24
1769.74,-4
1768.77,12
1767.81,23
1766.85,39
1765.88,44
1764.92,23
1763.95,4
1762.99,17
1762.03,40
1761.06,59
1760.10,72
1759.13,65
1758.17,28
1757.20,-17
1756.24,-36
1755.28,-20
1754.31,16
1753.35,50
1752.38,73
1751.42,73
1750.45,53
1749.49,42
1748.53,52
1747.56,73
1746.60,92
1745.63,86
1744.67,61
1743.70,44
1742.74,47
1741.78,56
1740.81,61
1739.85,60
1738.88,55
1737.92,44
1736.96,24
1735.99,6
1735.03,11
1734.06,37
1733.10,61
1732.13,65
1731.17,54
1730.21,49
1729.24,62
1728.28,82
1727.31,89
1726.35,74
1725.38,35
1724.42,-15
1723.46,-45
1722.49,-48
1721.53,-38
1720.56,-14
1719.60,14
1718.63,26
1717.67,26
1716.71,29
1715.74,28
1714.78,13
1713.81,-4
1712.85,-11
1711.89,-11
1710.92,-8
1709.96,1
1708.99,10
1708.03,6
1707.06,-4
1706.10,-15
1705.14,-23
1704.17,-11
1703.21,9
1702.24,14
1701.28,8
1700.31,5
1699.35,5
1698.39,3
1697.42,1
1696.46,-5
1695.49,-21
1694.53,-36
1693.56,-34
1692.60,-28
1691.64,-25
1690.67,-25
1689.71,-38
1688.74,-44
1687.78,-38
1686.81,-24
1685.85,-5
1684.89,-2
1683.92,-23
1682.96,-50
1681.99,-57
1681.03,-40
1680.07,-21
1679.10,-12
1678.14,0
1677.17,11
1676.21,16
1675.24,30
1674.28,64
1673.32,70
1672.35,44
1671.39,25
1670.42,14
1669.46,-12
1668.49,-44
1667.53,-47
1666.57,-11
1665.60,37
1664.64,66
1663.67,62
1662.71,26
1661.74,-20
1660.78,-38
1659.82,-21
1658.85,6
1657.89,13
1656.92,-7
1655.96,-27
1655.00,-33
1654.03,-28
1653.07,-17
1652.10,-3
1651.14,12
1650.17,24
1649.21,32
1648.25,31
1647.28,28
1646.32,34
1645.35,46
1644.39,51
1643.42,55
1642.46,49
1641.50,38
1640.53,28
1639.57,23
1638.60,27
1637.64,33
1636.67,34
1635.71,32
1634.75,32
1633.78,32
1632.82,35
1631.85,45
1630.89,52
1629.93,49
1628.96,33
1628.00,7
1627.03,-13
1626.07,-18
1625.10,-10
1624.14,3
1623.18,16
1622.21,24
1621.25,23
1620.28,19
1619.32,16
1618.35,8
1617.39,-4
1616.43,-3
1615.46,10
1614.50,31
1613.53,43
1612.57,32
1611.60,17
1610.64,13
1609.68,15
1608.71,20
1607.75,31
1606.78,46
1605.82,60
1604.86,74
1603.89,90
1602.93,102
1601.96,102
1601.00,82
1600.03,45
1599.07,12
1598.11,0
1597.14,9
1596.18,35
1595.21,64
1594.25,79
1593.28,71
1592.32,45
1591.36,22
1590.39,14
1589.43,17
1588.46,17
1587.50,17
1586.53,34
1585.57,55
1584.61,58
1583.64,49
1582.68,33
1581.71,16
1580.75,3
1579.79,7
1578.82,30
1577.86,58
1576.89,75
1575.93,74
1574.96,57
1574.00,30
1573.04,12
1572.07,17
1571.11,38
1570.14,69
1569.18,86
1568.21,78
1567.25,57
1566.29,34
1565.32,14
1564.36,3
1563.39,5
1562.43,21
1561.46,38
1560.50,50
1559.54,66
1558.57,87
1557.61,103
1556.64,113
1555.68,109
1554.72,93
1553.75,81
1552.79,79
1551.82,76
1550.86,66
1549.89,61
1548.93,61
1547.97,61
1547.00,54
1546.04,42
1545.07,25
1544.11,17
1543.14,23
1542.18,32
1541.22,30
1540.25,17
1539.29,0
1538.32,-12
1537.36,-8
1536.39,8
1535.43,19
1534.47,22
1533.50,43
1532.54,84
1531.57,107
1530.61,99
1529.64,73
1528.68,49
1527.72,36
1526.75,42
1525.79,62
1524.82,76
1523.86,54
1522.90,11
1521.93,0
1520.97,11
1520.00,4
1519.04,7
1518.07,20
1517.11,27
1516.15,25
1515.18,17
1514.22,6
1513.25,-3
1512.29,-1
1511.32,6
1510.36,4
1509.40,-13
1508.43,-18
1507.47,5
1506.50,27
1505.54,41
1504.57,36
1503.61,14
1502.65,-6
1501.68,-10
1500.72,-2
1499.75,0
1498.79,-12
1497.83,-28
1496.86,-24
1495.90,14
1494.93,59
1493.97,70
1493.00,47
1492.04,19
1491.08,8
1490.11,22
1489.15,49
1488.18,69
1487.22,74
1486.25,79
1485.29,101
1484.33,126
1483.36,142
1482.40,155
1481.43,177
1480.47,208
1479.50,248
1478.54,292
1477.58,331
1476.61,363
1475.65,398
1474.68,446
1473.72,500
1472.76,558
1471.79,622
1470.83,684
1469.86,757
1468.90,861
1467.93,986
1466.97,1104
1466.01,1192
1465.04,1256
1464.08,1315
1463.11,1382
1462.15,1444
1461.18,1463
1460.22,1439
1459.26,1433
1458.29,1449
1457.33,1473
1456.36,1488
1455.40,1485
1454.43,1456
1453.47,1407
1452.51,1360
1451.54,1336
1450.58,1340
1449.61,1363
1448.65,1401
1447.69,1457
1446.72,1513
1445.76,1602
1444.79,1748
1443.83,1947
1442.86,2190
1441.90,2440
1440.94,2646
1439.97,2781
1439.01,2780
1438.04,2684
1437.08,2523
1436.11,2291
1435.15,2033
1434.19,1788
1433.22,1551
1432.26,1337
1431.29,1147
1430.33,974
1429.36,829
1428.40,727
1427.44,658
1426.47,621
1425.51,595
1424.54,551
1423.58,512
1422.62,504
1421.65,544
1420.69,628
1419.72,740
1418.76,860
1417.79,971
1416.83,1050
1415.87,1059
1414.90,1015
1413.94,868
1412.97,657
1412.01,491
1411.04,341
1410.08,216
1409.12,128
1408.15,63
1407.19,17
1406.22,5
1405.26,14
1404.29,16
1403.33,6
1402.37,-5
1401.40,-15
1400.44,-21
1399.47,-13
1398.51,5
1397.55,15
1396.58,7
1395.62,-3
1394.65,-0
1393.69,-0
1392.72,4
1391.76,9
1390.80,1
1389.83,-18
1388.87,-31
1387.90,-33
1386.94,-33
1385.97,-44
1385.01,-64
1384.05,-73
1383.08,-55
1382.12,-21
1381.15,9
1380.19,20
1379.22,8
1378.26,-2
1377.30,6
1376.33,32
1375.37,64
1374.40,93
1373.44,121
1372.47,148
1371.51,177
1370.55,203
1369.58,212
1368.62,201
1367.65,183
1366.69,171
1365.73,158
1364.76,137
1363.80,115
1362.83,92
1361.87,89
1360.90,107
1359.94,123
1358.98,115
1358.01,87
1357.05,62
1356.08,49
1355.12,41
1354.15,26
1353.19,20
1352.23,33
1351.26,38
1350.30,35
1349.33,38
1348.37,39
1347.40,38
1346.44,40
1345.48,43
1344.51,42
1343.55,47
1342.58,61
1341.62,67
1340.66,61
1339.69,56
1338.73,57
1337.76,54
1336.80,41
1335.83,24
1334.87,14
1333.91,18
1332.94,28
1331.98,44
1331.01,68
1330.05,90
1329.08,109
1328.12,126
1327.16,140
1326.19,149
1325.23,149
1324.26,146
1323.30,149
1322.33,162
1321.37,177
1320.41,186
1319.44,188
1318.48,193
1317.51,205
1316.55,219
1315.59,240
1314.62,274
1313.66,317
1312.69,349
1311.73,354
1310.76,340
1309.80,342
1308.84,378
1307.87,431
1306.91,473
1305.94,507
1304.98,559
1304.01,638
1303.05,715
1302.09,790
1301.12,882
1300.16,1108
1299.19,1449
1298.23,1889
1297.26,2413
1296.30,2914
1295.34,3271
1294.37,3469
1293.41,3389
1292.44,2931
1291.48,2305
1290.52,1672
1289.55,1081
1288.59,710
1287.62,553
1286.66,486
1285.69,431
1284.73,392
1283.77,314
1282.80,246
1281.84,198
1280.87,189
1279.91,207
1278.94,232
1277.98,247
1277.02,248
1276.05,236
1275.09,219
1274.12,205
1273.16,200
1272.19,205
1271.23,210
1270.27,209
1269.30,197
1268.34,180
1267.37,167
1266.41,160
1265.45,144
1264.48,134
1263.52,150
1262.55,163
1261.59,156
1260.62,137
1259.66,116
1258.70,99
1257.73,87
1256.77,85
1255.80,94
1254.84,92
1253.87,76
1252.91,55
1251.95,26
1250.98,0
1250.02,-14
1249.05,-17
1248.09,-10
1247.12,3
1246.16,16
1245.20,16
1244.23,6
1243.27,1
1242.30,10
1241.34,23
1240.38,20
1239.41,-2
1238.45,-21
1237.48,-14
1236.52,16
1235.55,34
1234.59,33
1233.63,23
1232.66,9
1231.70,-8
1230.73,-27
1229.77,-42
1228.80,-50
1227.84,-49
1226.88,-43
1225.91,-39
1224.95,-36
1223.98,-30
1223.02,-23
1222.05,-18
1221.09,-9
1220.13,7
1219.16,21
1218.20,16
1217.23,-15
1216.27,-55
1215.30,-76
1214.34,-74
1213.38,-65
1212.41,-72
1211.45,-97
1210.48,-118
1209.52,-112
1208.56,-84
1207.59,-57
1206.63,-42
1205.66,-35
1204.70,-28
1203.73,-11
1202.77,18
1201.81,47
1200.84,42
1199.88,7
1198.91,-31
1197.95,-54
1196.98,-59
1196.02,-57
1195.06,-56
1194.09,-57
1193.13,-55
1192.16,-60
1191.20,-76
1190.23,-88
1189.27,-84
1188.31,-76
1187.34,-73
1186.38,-75
1185.41,-76
1184.45,-66
1183.49,-50
1182.52,-45
1181.56,-48
1180.59,-44
1179.63,-24
1178.66,8
1177.70,36
1176.74,50
1175.77,56
1174.81,76
1173.84,106
1172.88,150
1171.91,207
1170.95,260
1169.99,295
1169.02,313
1168.06,306
1167.09,283
1166.13,241
1165.16,180
1164.20,126
1163.24,81
1162.27,47
1161.31,29
1160.34,31
1159.38,39
1158.42,37
1157.45,33
1156.49,34
1155.52,41
1154.56,44
1153.59,34
1152.63,16
1151.67,0
1150.70,-14
1149.74,-20
1148.77,-6
1147.81,5
1146.84,3
1145.88,1
1144.92,13
1143.95,36
1142.99,57
1142.02,70
1141.06,87
1140.09,109
1139.13,124
1138.17,144
1137.20,178
1136.24,244
1135.27,361
1134.31,524
1133.35,748
1132.38,1025
1131.42,1298
1130.45,1572
1129.49,1788
1128.52,1886
1127.56,1838
1126.60,1660
1125.63,1360
1124.67,1010
1123.70,780
1122.74,595
1121.77,454
1120.81,355
1119.85,284
1118.88,232
1117.92,205
1116.95,185
1115.99,173
1115.02,155
1114.06,133
1113.10,119
1112.13,117
1111.17,121
1110.20,115
1109.24,95
1108.28,83
1107.31,87
1106.35,93
1105.38,100
1104.42,101
1103.45,87
1102.49,59
1101.53,40
1100.56,37
1099.60,53
1098.63,85
1097.67,117
1096.70,136
1095.74,139
1094.78,129
1093.81,108
1092.85,89
1091.88,102
1090.92,150
1089.95,203
1088.99,230
1088.03,228
1087.06,223
1086.10,240
1085.13,266
1084.17,270
1083.21,262
1082.24,257
1081.28,255
1080.31,251
1079.35,243
1078.38,233
1077.42,228
1076.46,237
1075.49,251
1074.53,258
1073.56,254
1072.60,253
1071.63,263
1070.67,284
1069.71,330
1068.74,411
1067.78,595
1066.81,851
1065.85,1133
1064.88,1420
1063.92,1671
1062.96,1834
1061.99,1896
1061.03,1840
1060.06,1646
1059.10,1389
1058.13,1122
1057.17,855
1056.21,622
1055.24,461
1054.28,327
1053.31,225
1052.35,182
1051.39,146
1050.42,116
1049.46,90
1048.49,70
1047.53,55
1046.56,39
1045.60,24
1044.64,21
1043.67,30
1042.71,38
1041.74,35
1040.78,25
1039.81,25
1038.85,45
1037.89,66
1036.92,63
1035.96,51
1034.99,35
1034.03,10
1033.06,-20
1032.10,-43
1031.14,-49
1030.17,-36
1029.21,-13
1028.24,8
1027.28,17
1026.32,11
1025.35,0
1024.39,-4
1023.42,1
1022.46,8
1021.49,18
1020.53,37
1019.57,54
1018.60,58
1017.64,47
1016.67,37
1015.71,43
1014.74,65
1013.78,75
1012.82,63
1011.85,37
1010.89,7
1009.92,-15
1008.96,-21
1007.99,-3
1007.03,22
1006.07,36
1005.10,41
1004.14,47
1003.17,60
1002.21,78
1001.25,87
1000.28,83
999.32,73
998.35,62
997.39,53
996.42,53
995.46,63
994.50,80
993.53,93
992.57,87
991.60,73
990.64,65
989.67,66
988.71,70
987.75,71
986.78,62
985.82,48
984.85,43
983.89,43
982.92,38
981.96,28
981.00,15
980.03,0
979.07,-15
978.10,-24
977.14,-25
976.18,-25
975.21,-29
974.25,-36
973.28,-45
972.32,-55
971.35,-54
970.39,-22
969.43,24
968.46,45
967.50,27
966.53,-12
965.57,-40
964.60,-45
963.64,-43
962.68,-34
961.71,-8
960.75,24
959.78,41
958.82,35
957.85,9
956.89,-15
955.93,-28
954.96,-41
954.00,-53
953.03,-61
952.07,-59
951.11,-44
950.14,-20
949.18,-7
948.21,-5
947.25,-11
946.28,-21
945.32,-33
944.36,-43
943.39,-53
942.43,-69
941.46,-84
940.50,-81
939.53,-65
938.57,-43
937.61,-19
936.64,6
935.68,22
934.71,3
933.75,-18
932.78,-16
931.82,2
930.86,20
929.89,30
928.93,31
927.96,23
927.00,13
926.04,4
925.07,-3
924.11,-4
923.14,3
922.18,19
921.21,41
920.25,63
919.29,80
918.32,77
917.36,57
916.39,32
915.43,13
914.46,2
913.50,16
912.54,30
911.57,35
910.61,31
909.64,24
908.68,14
907.71,3
906.75,-5
905.79,-13
904.82,-24
903.86,-32
902.89,-31
901.93,-18
900.96,-13
900.00,-35
899.04,-49
898.07,-62
897.11,-81
896.14,-100
895.18,-103
894.22,-86
893.25,-58
892.29,-31
891.32,-8
890.36,12
889.39,31
888.43,44
887.47,46
886.50,38
885.54,34
884.57,34
883.61,39
882.64,40
881.68,31
880.72,2
879.75,-29
878.79,-49
877.82,-62
876.86,-66
875.89,-60
874.93,-42
873.97,-25
873.00,-15
872.04,3
871.07,34
870.11,61
869.15,69
868.18,62
867.22,52
866.25,39
865.29,27
864.32,34
863.36,67
862.40,109
861.43,138
860.47,137
859.50,111
858.54,74
857.57,45
856.61,24
855.65,8
854.68,-4
853.72,-3
852.75,13
851.79,21
850.82,21
849.86,22
848.90,25
847.93,21
846.97,8
846.00,-4
845.04,-27
844.08,-50
843.11,-62
842.15,-58
841.18,-41
840.22,-15
839.25,9
838.29,27
837.33,37
836.36,28
835.40,3
834.43,-21
833.47,-12
832.50,6
831.54,4
830.58,13
829.61,29
828.65,38
827.68,32
826.72,20
825.75,5
824.79,-1
823.83,4
822.86,15
821.90,24
820.93,23
819.97,7
819.01,-17
818.04,-36
817.08,-41
816.11,-32
815.15,-19
814.18,-14
813.22,-14
812.26,-3
811.29,4
810.33,1
809.36,-9
808.40,-17
807.43,-18
806.47,-9
805.51,0
804.54,2
803.58,-1
802.61,-2
801.65,4
800.68,18
799.72,32
798.76,38
797.79,40
796.83,33
795.86,12
794.90,-18
793.94,-34
792.97,-23
792.01,-14
791.04,-9
790.08,-8
789.11,-13
788.15,-24
787.19,-31
786.22,-27
785.26,-17
784.29,-6
783.33,8
782.36,29
781.40,57
780.44,70
779.47,55
778.51,29
777.54,11
776.58,5
775.61,5
774.65,-1
773.69,-9
772.72,-26
771.76,-39
770.79,-37
769.83,-15
768.87,12
767.90,19
766.94,20
765.97,28
765.01,40
764.04,51
763.08,53
762.12,41
761.15,22
760.19,13
759.22,12
758.26,11
757.29,-1
756.33,-28
755.37,-64
754.40,-77
753.44,-67
752.47,-53
751.51,-51
750.54,-63
749.58,-69
748.62,-50
747.65,-23
746.69,-11
745.72,-18
744.76,-31
743.79,-30
742.83,-32
741.87,-57
740.90,-76
739.94,-73
738.97,-52
738.01,-29
737.05,-13
736.08,-2
735.12,5
734.15,14
733.19,23
732.22,30
731.26,26
730.30,15
729.33,17
728.37,35
727.40,57
726.44,68
725.47,58
724.51,37
723.55,15
722.58,-7
721.62,-23
720.65,-32
719.69,-38
718.72,-48
717.76,-47
716.80,-34
715.83,-18
714.87,-11
713.90,-16
712.94,-29
711.98,-32
711.01,-27
710.05,-26
709.08,-23
708.12,-14
707.15,-2
706.19,-2
705.23,1
704.26,8
703.30,7
702.33,-0
701.37,-9
700.40,-21
699.44,-45
698.48,-64
697.51,-69
696.55,-60
695.58,-43
694.62,-24
693.65,-7
692.69,0
691.73,-2
690.76,-12
689.80,-32
688.83,-70
687.87,-65
686.91,132
685.94,215
684.98,53
684.01,-155
683.05,-64
682.08,210
681.12,148
680.16,-2
679.19,-67
678.23,-25
677.26,49
676.30,72
675.33,76
674.37,70
673.41,49
672.44,26
671.48,13
670.51,11
669.55,-3
668.58,-15
667.62,-19
666.66,-17
665.69,-12
664.73,1
663.76,16
662.80,17
661.84,13
660.87,13
659.91,19
658.94,23
657.98,16
657.01,4
656.05,-6
655.09,-7
654.12,-3
653.16,5
652.19,12
651.23,13
650.26,0
649.30,-20
648.34,-41
647.37,-52
646.41,-48
645.44,-26
644.48,-4
643.51,10
642.55,10
641.59,-2
640.62,-23
639.66,-51
638.69,-69
637.73,-69
636.77,-54
635.80,-33
634.84,-15
633.87,-1
632.91,3
631.94,1
630.98,-3
630.02,-11
629.05,-23
628.09,-26
627.12,-11
626.16,11
625.19,27
624.23,25
623.27,3
622.30,-22
621.34,-29
620.37,-21
619.41,-3
618.44,23
617.48,52
616.52,72
615.55,88
614.59,105
613.62,120
612.66,126
611.70,125
610.73,129
609.77,132
608.80,133
607.84,138
606.87,153
605.91,176
604.95,193
603.98,194
603.02,180
602.05,154
601.09,121
600.12,89
599.16,86
598.20,91
597.23,84
596.27,60
595.30,30
594.34,13
593.37,10
592.41,22
591.45,42
590.48,58
589.52,56
588.55,34
587.59,7
586.62,-7
585.66,-14
584.70,-21
583.73,-29
582.77,-29
581.80,-12
580.84,-1
579.88,-3
578.91,-14
577.95,-24
576.98,-27
576.02,-13
575.05,13
574.09,38
573.13,49
572.16,43
571.20,24
570.23,1
569.27,-21
568.30,-36
567.34,-42
566.38,-36
565.41,-19
564.45,-1
563.48,13
562.52,16
561.55,1
560.59,-30
559.63,-53
558.66,-59
557.70,-56
556.73,-44
555.77,-21
554.81,4
553.84,11
552.88,9
551.91,7
550.95,9
549.98,17
549.02,28
548.06,36
547.09,32
546.13,17
545.16,-1
544.20,-11
543.23,-6
542.27,1
541.31,6
540.34,11
539.38,15
538.41,12
537.45,-12
536.48,-34
535.52,-45
534.56,-46
533.59,-37
532.63,-20
531.66,-0
530.70,9
529.74,5
528.77,-5
527.81,-10
526.84,-1
525.88,9
524.91,10
523.95,5
522.99,-1
522.02,-4
521.06,2
520.09,13
519.13,19
518.16,18
517.20,9
516.24,-8
515.27,-33
514.31,-48
513.34,-45
512.38,-28
511.41,-12
510.45,-9
509.49,-13
508.52,-10
507.56,-1
506.59,15
505.63,37
504.67,56
503.70,54
502.74,50
501.77,49
500.81,51
499.84,52
498.88,48
497.92,34
496.95,17
495.99,3
495.02,-2
494.06,2
493.09,6
492.13,5
491.17,0
490.20,-2
489.24,4
488.27,20
487.31,36
486.34,48
485.38,64
484.42,85
483.45,105
482.49,106
481.52,111
480.56,107
479.60,91
478.63,63
477.67,46
476.70,42
475.74,35
474.77,25
473.81,16
472.85,12
471.88,15
470.92,27
469.95,41
468.99,53
468.02,62
467.06,66
466.10,67
465.13,79
464.17,103
463.20,130
462.24,149
461.27,156
460.31,160
459.35,167
458.38,177
457.42,192
456.45,213
455.49,243
454.53,272
453.56,288
452.60,286
451.63,270
450.67,259
449.70,265
448.74,281
447.78,300
446.81,313
445.85,315
444.88,315
443.92,318
442.95,316
441.99,306
441.03,290
440.06,272
439.10,257
438.13,241
437.17,224
436.20,210
435.24,202
434.28,193
433.31,175
432.35,157
431.38,146
430.42,145
429.45,152
428.49,161
427.53,160
426.56,143
425.60,112
424.63,87
423.67,88
422.71,95
421.74,102
420.78,108
419.81,111
418.85,107
417.88,96
416.92,82
415.96,67
414.99,53
414.03,40
413.06,31
412.10,22
411.13,15
410.17,11
409.21,8
408.24,0
407.28,-1
406.31,3
405.35,6
404.38,3
403.42,-2
402.46,-0
401.49,1
400.53,1
399.56,-0
398.60,1
397.64,-8
396.67,-32
395.71,-50
394.74,-48
393.78,-19
392.81,17
391.85,41
390.89,46
389.92,29
388.96,-6
387.99,-33
387.03,-28
386.06,-10
385.10,9
384.14,20
383.17,18
382.21,8
381.24,-0
380.28,-9
379.31,-19
378.35,-30
377.39,-39
376.42,-40
375.46,-28
374.49,-11
373.53,4
372.57,8
371.60,-0
370.64,-11
369.67,-14
368.71,-6
367.74,9
366.78,14
365.82,14
364.85,22
363.89,40
362.92,67
361.96,86
360.99,83
360.03,71
359.07,60
358.10,65
357.14,90
356.17,118
355.21,147
354.24,177
353.28,201
352.32,199
351.35,147
350.39,90
349.42,49
348.46,32
347.50,37
346.53,50
345.57,52
344.60,52
343.64,53
342.67,61
341.71,62
340.75,49
339.78,34
338.82,25
337.85,25
336.89,29
335.92,23
334.96,10
334.00,-0
333.03,-2
332.07,1
331.10,-9
330.14,-21
329.17,-26
328.21,-19
327.25,-1
326.28,18
325.32,32
324.35,38
323.39,39
322.43,38
321.46,42
320.50,43
319.53,36
318.57,22
317.60,8
316.64,0
315.68,-12
314.71,-24
313.75,-27
312.78,-11
311.82,14
310.85,26
309.89,28
308.93,18
307.96,-5
307.00,-41
306.03,-80
305.07,-102
304.10,-100
303.14,-71
302.18,-28
301.21,-3
300.25,3
299.28,-7
298.32,-27
297.36,-54
296.39,-64
295.43,-54
294.46,-36
293.50,-21
292.53,-11
291.57,-6
290.61,-17
289.64,-36
288.68,-52
287.71,-54
286.75,-39
285.78,-23
284.82,-14
283.86,-13
282.89,-14
281.93,-12
280.96,-9
280.00,-9
279.03,-14
278.07,-24
277.11,-38
276.14,-49
275.18,-51
274.21,-43
273.25,-29
272.28,-20
271.32,-21
270.36,-18
269.39,-10
268.43,1
267.46,8
266.50,7
265.54,2
264.57,-5
263.61,-15
262.64,-26
261.68,-38
260.71,-42
259.75,-33
258.79,-12
257.82,7
256.86,3
255.89,-9
254.93,-20
253.96,-26
253.00,-24
252.04,-8
251.07,8
250.11,20
249.14,26
248.18,29
247.21,27
246.25,18
245.29,5
244.32,-6
243.36,-7
242.39,-5
241.43,-8
240.47,-13
239.50,-12
238.54,2
237.57,19
236.61,20
235.64,13
234.68,7
233.72,20
232.75,37
231.79,56
230.82,74
229.86,92
228.89,105
227.93,123
226.97,137
226.00,140
225.04,127
224.07,105
223.11,81
222.14,56
221.18,38
220.22,33
219.25,33
218.29,30
217.32,32
216.36,36
215.40,37
214.43,23
213.47,-7
212.50,-31
211.54,-37
210.57,-19
209.61,18
208.65,46
207.68,51
206.72,33
205.75,-2
204.79,-32
203.82,-37
202.86,-29
201.90,-19
200.93,-13
199.97,-8
199.00,-4
198.04,-1
197.07,5
196.11,15
195.15,19
194.18,14
193.22,8
192.25,2
191.29,0
190.33,-4
189.36,-13
188.40,-26
187.43,-39
186.47,-48
185.50,-44
184.54,-32
183.58,-24
182.61,-27
181.65,-48
180.68,-78
179.72,-103
178.75,-119
177.79,-123
176.83,-110
175.86,-91
174.90,-81
173.93,-79
172.97,-81
172.00,-79
171.04,-80
170.08,-91
169.11,-108
168.15,-129
167.18,-149
166.22,-162
165.26,-162
164.29,-150
163.33,-128
162.36,-108
161.40,-98
160.43,-91
159.47,-85
158.51,-77
157.54,-71
156.58,-62
155.61,-51
154.65,-44
153.68,-47
152.72,-52
151.76,-57
150.79,-61
149.83,-60
148.86,-49
147.90,-26
146.93,-0
145.97,25
145.01,47
144.04,62
143.08,69
142.11,76
141.15,79
140.19,78
139.22,73
138.26,69
137.29,60
136.33,48
135.36,35
134.40,0
133.44,-40
132.47,-73
131.51,-91
130.54,-96
129.58,-89
128.61,-71
127.65,-51
126.69,-38
125.72,-44
124.76,-73
123.79,-100
122.83,-113
121.86,-106
120.90,-79
119.94,-58
118.97,-43
118.01,-31
117.04,-20
116.08,-18
115.11,-28
114.15,-37
113.19,-41
112.22,-39
111.26,-30
110.29,-13
109.33,10
108.37,36
107.40,60
106.44,70
105.47,72
104.51,73
103.54,74
102.58,75
101.62,64
100.65,50
99.69,40
98.72,37
97.76,35
96.79,22
95.83,8
94.87,-7
93.90,-14
92.94,-17
91.97,-16
91.01,-14
90.04,-13
89.08,-13
88.12,-18
87.15,-32
86.19,-49
85.22,-66
84.26,-78
83.30,-87
82.33,-91
81.37,-95
80.40,-102
79.44,-113
78.47,-117
77.51,-114
76.55,-105
