Created As Omnic File,PLAS 218
Raman Shift / cm-1,INT
3418.58,-14
3417.61,-14
3416.65,-12
3415.68,-9
3414.72,-3
3413.76,2
3412.79,3
3411.83,-2
3410.86,-10
3409.90,-13
3408.94,-6
3407.97,0
3407.01,-3
3406.04,-3
3405.08,0
3404.11,4
3403.15,7
3402.19,5
3401.22,-2
3400.26,-0
3399.29,5
3398.33,4
3397.36,-0
3396.40,-4
3395.44,0
3394.47,14
3393.51,19
3392.54,16
3391.58,16
3390.61,19
3389.65,15
3388.69,6
3387.72,5
3386.76,11
3385.79,17
3384.83,20
3383.87,17
3382.90,13
3381.94,10
3380.97,9
3380.01,7
3379.04,5
3378.08,8
3377.12,10
3376.15,11
3375.19,14
3374.22,16
3373.26,21
3372.29,24
3371.33,20
3370.37,17
3369.40,16
3368.44,15
3367.47,12
3366.51,10
3365.54,10
3364.58,10
3363.62,10
3362.65,14
3361.69,18
3360.72,16
3359.76,11
3358.80,8
3357.83,8
3356.87,15
3355.90,18
3354.94,11
3353.97,6
3353.01,5
3352.05,1
3351.08,-3
3350.12,6
3349.15,19
3348.19,24
3347.22,22
3346.26,17
3345.30,12
3344.33,12
3343.37,10
3342.40,7
3341.44,8
3340.47,11
3339.51,14
3338.55,12
3337.58,8
3336.62,8
3335.65,6
3334.69,3
3333.73,6
3332.76,11
3331.80,17
3330.83,19
3329.87,9
3328.90,-4
3327.94,-6
3326.98,0
3326.01,3
3325.05,8
3324.08,13
3323.12,9
3322.15,1
3321.19,-1
3320.23,1
3319.26,8
3318.30,16
3317.33,16
3316.37,8
3315.40,-2
3314.44,-7
3313.48,1
3312.51,10
3311.55,8
3310.58,5
3309.62,3
3308.66,5
3307.69,7
3306.73,7
3305.76,3
3304.80,-2
3303.83,-6
3302.87,-5
3301.91,0
3300.94,-0
3299.98,-1
3299.01,1
3298.05,2
3297.08,5
3296.12,3
3295.16,-3
3294.19,0
3293.23,14
3292.26,24
3291.30,22
3290.33,10
3289.37,-1
3288.41,-1
3287.44,3
3286.48,-0
3285.51,-5
3284.55,-2
3283.59,7
3282.62,12
3281.66,13
3280.69,13
3279.73,14
3278.76,14
3277.80,11
3276.84,4
3275.87,0
3274.91,4
3273.94,12
3272.98,20
3272.01,18
3271.05,7
3270.09,6
3269.12,9
3268.16,7
3267.19,4
3266.23,7
3265.26,13
3264.30,16
3263.34,17
3262.37,18
3261.41,19
3260.44,22
3259.48,24
3258.51,25
3257.55,25
3256.59,23
3255.62,19
3254.66,14
3253.69,11
3252.73,9
3251.77,11
3250.80,15
3249.84,17
3248.87,15
3247.91,10
3246.94,4
3245.98,6
3245.02,10
3244.05,17
3243.09,23
3242.12,21
3241.16,14
3240.19,6
3239.23,4
3238.27,8
3237.30,17
3236.34,27
3235.37,29
3234.41,27
3233.44,24
3232.48,22
3231.52,19
3230.55,16
3229.59,17
3228.62,20
3227.66,20
3226.70,20
3225.73,15
3224.77,12
3223.80,12
3222.84,13
3221.87,17
3220.91,21
3219.95,22
3218.98,19
3218.02,11
3217.05,7
3216.09,11
3215.12,17
3214.16,19
3213.20,20
3212.23,18
3211.27,17
3210.30,16
3209.34,17
3208.37,18
3207.41,17
3206.45,14
3205.48,10
3204.52,7
3203.55,5
3202.59,6
3201.63,6
3200.66,5
3199.70,4
3198.73,3
3197.77,2
3196.80,0
3195.84,-2
3194.88,1
3193.91,5
3192.95,7
3191.98,5
3191.02,-2
3190.05,-10
3189.09,-6
3188.13,0
3187.16,6
3186.20,11
3185.23,12
3184.27,10
3183.30,4
3182.34,-2
3181.38,-6
3180.41,-5
3179.45,-0
3178.48,2
3177.52,1
3176.56,4
3175.59,7
3174.63,5
3173.66,-1
3172.70,-6
3171.73,-5
3170.77,4
3169.81,15
3168.84,15
3167.88,9
3166.91,4
3165.95,-2
3164.98,-12
3164.02,-20
3163.06,-17
3162.09,-6
3161.13,1
3160.16,3
3159.20,-4
3158.23,-16
3157.27,-22
3156.31,-18
3155.34,-5
3154.38,5
3153.41,5
3152.45,-5
3151.49,-16
3150.52,-17
3149.56,-13
3148.59,-13
3147.63,-16
3146.66,-9
3145.70,7
3144.74,2
3143.77,-9
3142.81,-10
3141.84,-7
3140.88,-2
3139.91,1
3138.95,2
3137.99,1
3137.02,-5
3136.06,-12
3135.09,-13
3134.13,-14
3133.16,-13
3132.20,-7
3131.24,-1
3130.27,-3
3129.31,-9
3128.34,-12
3127.38,-11
3126.42,-13
3125.45,-15
3124.49,-7
3123.52,3
3122.56,-2
3121.59,-18
3120.63,-23
3119.67,-18
3118.70,-13
3117.74,-11
3116.77,-14
3115.81,-19
3114.84,-21
3113.88,-20
3112.92,-15
3111.95,-10
3110.99,-7
3110.02,-7
3109.06,-10
3108.09,-13
3107.13,-17
3106.17,-21
3105.20,-21
3104.24,-19
3103.27,-17
3102.31,-11
3101.34,0
3100.38,3
3099.42,0
3098.45,-0
3097.49,2
3096.52,6
3095.56,11
3094.60,8
3093.63,-0
3092.67,-3
3091.70,0
3090.74,8
3089.77,18
3088.81,24
3087.85,26
3086.88,25
3085.92,23
3084.95,22
3083.99,27
3083.02,35
3082.06,40
3081.10,36
3080.13,33
3079.17,38
3078.20,41
3077.24,40
3076.27,43
3075.31,50
3074.35,55
3073.38,54
3072.42,49
3071.45,47
3070.49,47
3069.53,48
3068.56,47
3067.60,44
3066.63,45
3065.67,50
3064.70,51
3063.74,48
3062.78,48
3061.81,48
3060.85,47
3059.88,47
3058.92,51
3057.95,59
3056.99,63
3056.03,62
3055.06,57
3054.10,55
3053.13,57
3052.17,60
3051.20,63
3050.24,61
3049.28,53
3048.31,49
3047.35,57
3046.38,68
3045.42,76
3044.46,76
3043.49,70
3042.53,64
3041.56,65
3040.60,72
3039.63,80
3038.67,86
3037.71,91
3036.74,93
3035.78,90
3034.81,85
3033.85,82
3032.88,82
3031.92,87
3030.96,95
3029.99,99
3029.03,94
3028.06,89
3027.10,93
3026.13,101
3025.17,107
3024.21,108
3023.24,108
3022.28,108
3021.31,107
3020.35,103
3019.39,103
3018.42,114
3017.46,126
3016.49,137
3015.53,145
3014.56,148
3013.60,150
3012.64,153
3011.67,160
3010.71,164
3009.74,160
3008.78,158
3007.81,164
3006.85,172
3005.89,176
3004.92,184
3003.96,198
3002.99,208
3002.03,212
3001.06,216
3000.10,220
2999.14,228
2998.17,238
2997.21,246
2996.24,250
2995.28,260
2994.32,274
2993.35,288
2992.39,297
2991.42,304
2990.46,315
2989.49,329
2988.53,342
2987.57,357
2986.60,370
2985.64,378
2984.67,388
2983.71,400
2982.74,416
2981.78,439
2980.82,465
2979.85,489
2978.89,513
2977.92,538
2976.96,564
2975.99,588
2975.03,612
2974.07,640
2973.10,668
2972.14,697
2971.17,729
2970.21,772
2969.25,821
2968.28,871
2967.32,922
2966.35,971
2965.39,1017
2964.42,1062
2963.46,1110
2962.50,1159
2961.53,1211
2960.57,1260
2959.60,1306
2958.64,1347
2957.67,1393
2956.71,1447
2955.75,1500
2954.78,1541
2953.82,1575
2952.85,1613
2951.89,1665
2950.92,1735
2949.96,1813
2949.00,1895
2948.03,1988
2947.07,2097
2946.10,2228
2945.14,2381
2944.17,2560
2943.21,2768
2942.25,2997
2941.28,3235
2940.32,3470
2939.35,3698
2938.39,3920
2937.43,4138
2936.46,4331
2935.50,4499
2934.53,4654
2933.57,4798
2932.60,4925
2931.64,5029
2930.68,5110
2929.71,5174
2928.75,5228
2927.78,5277
2926.82,5322
2925.85,5355
2924.89,5369
2923.93,5373
2922.96,5381
2922.00,5394
2921.03,5409
2920.07,5427
2919.10,5454
2918.14,5495
2917.18,5541
2916.21,5587
2915.25,5635
2914.28,5691
2913.32,5771
2912.36,5877
2911.39,6004
2910.43,6142
2909.46,6289
2908.50,6452
2907.53,6636
2906.57,6827
2905.61,7011
2904.64,7194
2903.68,7387
2902.71,7594
2901.75,7791
2900.78,7965
2899.82,8117
2898.86,8259
2897.89,8402
2896.93,8542
2895.96,8666
2895.00,8779
2894.03,8905
2893.07,9041
2892.11,9175
2891.14,9335
2890.18,9554
2889.21,9824
2888.25,10175
2887.29,10649
2886.32,11296
2885.36,12172
2884.39,13309
2883.43,14620
2882.46,16039
2881.50,17315
2880.54,17957
2879.57,17965
2878.61,16959
2877.64,15355
2876.68,13461
2875.71,11707
2874.75,10436
2873.79,9502
2872.82,8856
2871.86,8411
2870.89,8086
2869.93,7874
2868.96,7724
2868.00,7646
2867.04,7607
2866.07,7607
2865.11,7635
2864.14,7693
2863.18,7787
2862.22,7911
2861.25,8058
2860.29,8233
2859.32,8447
2858.36,8698
2857.39,8978
2856.43,9275
2855.47,9595
2854.50,9951
2853.54,10340
2852.57,10752
2851.61,11186
2850.64,11624
2849.68,12066
2848.72,12446
2847.75,12697
2846.79,12801
2845.82,12721
2844.86,12443
2843.89,11922
2842.93,11201
2841.97,10301
2841.00,9324
2840.04,8305
2839.07,7312
2838.11,6368
2837.15,5499
2836.18,4735
2835.22,4066
2834.25,3493
2833.29,3000
2832.32,2578
2831.36,2225
2830.40,1928
2829.43,1677
2828.47,1471
2827.50,1297
2826.54,1153
2825.57,1029
2824.61,920
2823.65,826
2822.68,748
2821.72,688
2820.75,637
2819.79,589
2818.82,542
2817.86,489
2816.90,433
2815.93,390
2814.97,367
2814.00,348
2813.04,322
2812.08,290
2811.11,263
2810.15,244
2809.18,231
2808.22,221
2807.25,210
2806.29,195
2805.33,179
2804.36,166
2803.40,154
2802.43,144
2801.47,135
2800.50,124
2799.54,111
2798.58,100
2797.61,93
2796.65,89
2795.68,89
2794.72,83
2793.75,66
2792.79,54
2791.83,54
2790.86,49
2789.90,37
2788.93,30
2787.97,36
2787.00,43
2786.04,43
2785.08,40
2784.11,36
2783.15,31
2782.18,28
2781.22,23
2780.26,13
2779.29,8
2778.33,11
2777.36,15
2776.40,13
2775.43,7
2774.47,2
2773.51,4
2772.54,11
2771.58,13
2770.61,8
2769.65,0
2768.68,-2
2767.72,2
2766.76,5
2765.79,6
2764.83,4
2763.86,9
2762.90,26
2761.93,42
2760.97,33
2760.01,21
2759.04,29
2758.08,42
2757.11,52
2756.15,57
2755.19,56
2754.22,55
2753.26,53
2752.29,54
2751.33,64
2750.36,77
2749.40,84
2748.44,87
2747.47,97
2746.51,106
2745.54,107
2744.58,110
2743.61,122
2742.65,141
2741.69,168
2740.72,194
2739.76,211
2738.79,224
2737.83,239
2736.86,258
2735.90,288
2734.94,327
2733.97,364
2733.01,399
2732.04,432
2731.08,464
2730.12,511
2729.15,566
2728.19,610
2727.22,647
2726.26,687
2725.29,727
2724.33,752
2723.37,766
2722.40,778
2721.44,784
2720.47,780
2719.51,769
2718.54,766
2717.58,766
2716.62,757
2715.65,735
2714.69,708
2713.72,680
2712.76,651
2711.79,620
2710.83,587
2709.87,554
2708.90,524
2707.94,493
2706.97,461
2706.01,431
2705.05,396
2704.08,364
2703.12,344
2702.15,330
2701.19,308
2700.22,276
2699.26,246
2698.30,226
2697.33,211
2696.37,195
2695.40,179
2694.44,162
2693.47,144
2692.51,129
2691.55,122
2690.58,127
2689.62,128
2688.65,116
2687.69,100
2686.72,91
2685.76,90
2684.80,89
2683.83,84
2682.87,71
2681.90,56
2680.94,49
2679.98,47
2679.01,44
2678.05,40
2677.08,35
2676.12,31
2675.15,32
2674.19,33
2673.23,21
2672.26,6
2671.30,1
2670.33,0
2669.37,-1
2668.40,-3
2667.44,-5
2666.48,-2
2665.51,10
2664.55,24
2663.58,25
2662.62,17
2661.65,18
2660.69,30
2659.73,33
2658.76,29
2657.80,37
2656.83,50
2655.87,60
2654.91,67
2653.94,64
2652.98,56
2652.01,53
2651.05,55
2650.08,56
2649.12,52
2648.16,42
2647.19,32
2646.23,29
2645.26,35
2644.30,39
2643.33,41
2642.37,42
2641.41,37
2640.44,32
2639.48,32
2638.51,29
2637.55,23
2636.58,20
2635.62,14
2634.66,6
2633.69,-2
2632.73,-9
2631.76,-11
2630.80,-7
2629.83,4
2628.87,20
2627.91,35
2626.94,38
2625.98,28
2625.01,11
2624.05,3
2623.09,3
2622.12,5
2621.16,5
2620.19,12
2619.23,25
2618.26,29
2617.30,27
2616.34,26
2615.37,27
2614.41,32
2613.44,41
2612.48,40
2611.51,29
2610.55,25
2609.59,33
2608.62,46
2607.66,60
2606.69,57
2605.73,41
2604.76,35
2603.80,42
2602.84,48
2601.87,43
2600.91,37
2599.94,37
2598.98,38
2598.02,40
2597.05,40
2596.09,38
2595.12,39
2594.16,39
2593.19,38
2592.23,40
2591.27,46
2590.30,54
2589.34,60
2588.37,59
2587.41,52
2586.44,43
2585.48,33
2584.52,32
2583.55,32
2582.59,14
2581.62,-3
2580.66,-0
2579.69,11
2578.73,13
2577.77,3
2576.80,-11
2575.84,-22
2574.87,-24
2573.91,-20
2572.95,-16
2571.98,-23
2571.02,-35
2570.05,-43
2569.09,-42
2568.12,-33
2567.16,-23
2566.20,-20
2565.23,-27
2564.27,-38
2563.30,-47
2562.34,-45
2561.37,-35
2560.41,-28
2559.45,-29
2558.48,-42
2557.52,-56
2556.55,-53
2555.59,-42
2554.62,-38
2553.66,-41
2552.70,-47
2551.73,-51
2550.77,-56
2549.80,-61
2548.84,-63
2547.88,-61
2546.91,-59
2545.95,-58
2544.98,-55
2544.02,-48
2543.05,-41
2542.09,-40
2541.13,-43
2540.16,-48
2539.20,-53
2538.23,-53
2537.27,-44
2536.30,-33
2535.34,-29
2534.38,-35
2533.41,-41
2532.45,-42
2531.48,-42
2530.52,-44
2529.55,-43
2528.59,-35
2527.63,-25
2526.66,-22
2525.70,-23
2524.73,-21
2523.77,-20
2522.81,-28
2521.84,-37
2520.88,-33
2519.91,-20
2518.95,-18
2517.98,-27
2517.02,-30
2516.06,-22
2515.09,-18
2514.13,-18
2513.16,-11
2512.20,-1
2511.23,1
2510.27,-4
2509.31,-5
2508.34,-2
2507.38,5
2506.41,7
2505.45,4
2504.48,3
2503.52,3
2502.56,2
2501.59,1
2500.63,0
2499.66,-1
2498.70,1
2497.74,7
2496.77,12
2495.81,14
2494.84,22
2493.88,32
2492.91,29
2491.95,23
2490.99,17
2490.02,11
2489.06,10
2488.09,10
2487.13,8
2486.16,8
2485.20,10
2484.24,16
2483.27,26
2482.31,33
2481.34,35
2480.38,30
2479.41,21
2478.45,12
2477.49,5
2476.52,2
2475.56,0
2474.59,7
2473.63,17
2472.66,19
2471.70,11
2470.74,2
2469.77,-4
2468.81,-2
2467.84,6
2466.88,15
2465.92,25
2464.95,23
2463.99,14
2463.02,9
2462.06,9
2461.09,7
2460.13,3
2459.17,1
2458.20,5
2457.24,7
2456.27,-0
2455.31,-4
2454.34,9
2453.38,28
2452.42,43
2451.45,49
2450.49,46
2449.52,42
2448.56,41
2447.59,42
2446.63,40
2445.67,37
2444.70,40
2443.74,55
2442.77,77
2441.81,96
2440.85,101
2439.88,95
2438.92,88
2437.95,84
2436.99,81
2436.02,79
2435.06,80
2434.10,91
2433.13,104
2432.17,102
2431.20,96
2430.24,100
2429.27,104
2428.31,99
2427.35,89
2426.38,80
2425.42,72
2424.45,65
2423.49,60
2422.52,62
2421.56,69
2420.60,76
2419.63,77
2418.67,73
2417.70,68
2416.74,65
2415.78,62
2414.81,52
2413.85,35
2412.88,22
2411.92,20
2410.95,31
2409.99,45
2409.03,48
2408.06,38
2407.10,22
2406.13,8
2405.17,5
2404.20,16
2403.24,34
2402.28,46
2401.31,48
2400.35,42
2399.38,35
2398.42,31
2397.45,29
2396.49,27
2395.53,23
2394.56,19
2393.60,17
2392.63,19
2391.67,18
2390.71,17
2389.74,17
2388.78,20
2387.81,24
2386.85,25
2385.88,22
2384.92,18
2383.96,16
2382.99,16
2382.03,14
2381.06,15
2380.10,25
2379.13,37
2378.17,49
2377.21,58
2376.24,60
2375.28,53
2374.31,38
2373.35,19
2372.38,6
2371.42,6
2370.46,12
2369.49,13
2368.53,9
2367.56,18
2366.60,31
2365.64,29
2364.67,10
2363.71,-5
2362.74,-12
2361.78,-10
2360.81,-2
2359.85,5
2358.89,3
2357.92,-8
2356.96,-22
2355.99,-26
2355.03,-15
2354.06,0
2353.10,1
2352.14,-12
2351.17,-19
2350.21,-21
2349.24,-18
2348.28,-12
2347.31,-9
2346.35,-14
2345.39,-21
2344.42,-25
2343.46,-26
2342.49,-24
2341.53,-25
2340.57,-29
2339.60,-29
2338.64,-21
2337.67,-11
2336.71,-12
2335.74,-21
2334.78,-33
2333.82,-42
2332.85,-47
2331.89,-47
2330.92,-44
2329.96,-38
2328.99,-24
2328.03,-9
2327.07,-7
2326.10,-16
2325.14,-20
2324.17,-21
2323.21,-23
2322.24,-30
2321.28,-39
2320.32,-41
2319.35,-37
2318.39,-31
2317.42,-26
2316.46,-22
2315.49,-21
2314.53,-26
2313.57,-32
2312.60,-28
2311.64,-18
2310.67,-14
2309.71,-12
2308.75,-17
2307.78,-31
2306.82,-38
2305.85,-35
2304.89,-31
2303.92,-28
2302.96,-24
2302.00,-26
2301.03,-35
2300.07,-39
2299.10,-34
2298.14,-26
2297.17,-20
2296.21,-14
2295.25,-13
2294.28,-16
2293.32,-14
2292.35,-2
2291.39,14
2290.42,20
2289.46,12
2288.50,3
2287.53,-8
2286.57,-6
2285.60,8
2284.64,21
2283.68,18
2282.71,7
2281.75,10
2280.78,24
2279.82,33
2278.85,34
2277.89,26
2276.93,13
2275.96,10
2275.00,23
2274.03,33
2273.07,31
2272.10,26
2271.14,23
2270.18,24
2269.21,27
2268.25,24
2267.28,8
2266.32,-12
2265.35,-14
2264.39,1
2263.43,13
2262.46,15
2261.50,16
2260.53,23
2259.57,31
2258.61,27
2257.64,6
2256.68,-14
2255.71,-23
2254.75,-17
2253.78,1
2252.82,8
2251.86,-1
2250.89,-9
2249.93,-12
2248.96,-2
2248.00,19
2247.03,23
2246.07,11
2245.11,8
2244.14,8
2243.18,9
2242.21,9
2241.25,4
2240.28,4
2239.32,0
2238.36,6
2237.39,9
2236.43,10
2235.46,5
2234.50,-9
2233.54,-18
2232.57,-13
2231.61,4
2230.64,20
2229.68,24
2228.71,12
2227.75,-3
2226.79,-10
2225.82,-8
2224.86,-4
2223.89,2
2222.93,6
2221.96,9
2221.00,11
2220.04,12
2219.07,4
2218.11,-14
2217.14,-27
2216.18,-23
2215.21,-4
2214.25,18
2213.29,27
2212.32,15
2211.36,-9
2210.39,-25
2209.43,-25
2208.47,-18
2207.50,-16
2206.54,-19
2205.57,-21
2204.61,-16
2203.64,-4
2202.68,4
2201.72,10
2200.75,18
2199.79,21
2198.82,14
2197.86,2
2196.89,-5
2195.93,-13
2194.97,-29
2194.00,-45
2193.04,-41
2192.07,-15
2191.11,11
2190.14,24
2189.18,30
2188.22,32
2187.25,30
2186.29,28
2185.32,30
2184.36,34
2183.40,35
2182.43,27
2181.47,13
2180.50,-0
2179.54,-7
2178.57,-4
2177.61,3
2176.65,7
2175.68,-3
2174.72,-19
2173.75,-31
2172.79,-39
2171.82,-42
2170.86,-40
2169.90,-37
2168.93,-35
2167.97,-33
2167.00,-35
2166.04,-39
2165.07,-42
2164.11,-41
2163.15,-35
2162.18,-29
2161.22,-24
2160.25,-25
2159.29,-33
2158.32,-35
2157.36,-21
2156.40,-9
2155.43,-14
2154.47,-31
2153.50,-40
2152.54,-37
2151.58,-29
2150.61,-23
2149.65,-21
2148.68,-18
2147.72,-12
2146.75,-6
2145.79,0
2144.83,2
2143.86,0
2142.90,-8
2141.93,-17
2140.97,-24
2140.00,-22
2139.04,-19
2138.08,-21
2137.11,-19
2136.15,-10
2135.18,-6
2134.22,-8
2133.25,-3
2132.29,10
2131.33,21
2130.36,29
2129.40,29
2128.43,24
2127.47,20
2126.51,20
2125.54,22
2124.58,26
2123.61,31
2122.65,31
2121.68,20
2120.72,10
2119.76,22
2118.79,43
2117.83,47
2116.86,36
2115.90,25
2114.93,20
2113.97,18
2113.01,18
2112.04,23
2111.08,29
2110.11,31
2109.15,28
2108.18,21
2107.22,17
2106.26,17
2105.29,14
2104.33,14
2103.36,21
2102.40,29
2101.44,34
2100.47,34
2099.51,29
2098.54,21
2097.58,12
2096.61,2
2095.65,-7
2094.69,-16
2093.72,-24
2092.76,-26
2091.79,-22
2090.83,-12
2089.86,-2
2088.90,1
2087.94,0
2086.97,-4
2086.01,-7
2085.04,-6
2084.08,-4
2083.11,-3
2082.15,-5
2081.19,-8
2080.22,-12
2079.26,-13
2078.29,-3
2077.33,16
2076.37,25
2075.40,16
2074.44,5
2073.47,4
2072.51,10
2071.54,7
2070.58,-3
2069.62,-10
2068.65,-10
2067.69,-8
2066.72,-11
2065.76,-5
2064.79,19
2063.83,41
2062.87,46
2061.90,39
2060.94,23
2059.97,6
2059.01,-4
2058.04,-6
2057.08,0
2056.12,3
2055.15,-0
2054.19,-9
2053.22,-13
2052.26,-12
2051.30,-14
2050.33,-15
2049.37,-13
2048.40,-7
2047.44,3
2046.47,4
2045.51,-6
2044.55,-12
2043.58,-7
2042.62,1
2041.65,4
2040.69,8
2039.72,15
2038.76,17
2037.80,4
2036.83,-18
2035.87,-36
2034.90,-46
2033.94,-40
2032.97,-23
2032.01,-9
2031.05,-7
2030.08,-12
2029.12,-22
2028.15,-32
2027.19,-34
2026.23,-26
2025.26,-23
2024.30,-27
2023.33,-28
2022.37,-26
2021.40,-25
2020.44,-26
2019.48,-30
2018.51,-38
2017.55,-44
2016.58,-45
2015.62,-45
2014.65,-44
2013.69,-41
2012.73,-37
2011.76,-32
2010.80,-21
2009.83,-4
2008.87,-0
2007.90,-9
2006.94,-23
2005.98,-36
2005.01,-48
2004.05,-58
2003.08,-61
2002.12,-59
2001.15,-55
2000.19,-51
1999.23,-47
1998.26,-48
1997.30,-54
1996.33,-60
1995.37,-66
1994.41,-71
1993.44,-67
1992.48,-60
1991.51,-53
1990.55,-48
1989.58,-47
1988.62,-48
1987.66,-47
1986.69,-46
1985.73,-48
1984.76,-53
1983.80,-55
1982.83,-50
1981.87,-40
1980.91,-35
1979.94,-43
1978.98,-64
1978.01,-87
1977.05,-94
1976.08,-78
1975.12,-57
1974.16,-49
1973.19,-55
1972.23,-65
1971.26,-72
1970.30,-65
1969.34,-47
1968.37,-35
1967.41,-37
1966.44,-44
1965.48,-49
1964.51,-51
1963.55,-51
1962.59,-51
1961.62,-49
1960.66,-49
1959.69,-59
1958.73,-76
1957.76,-86
1956.80,-85
1955.84,-79
1954.87,-71
1953.91,-67
1952.94,-63
1951.98,-56
1951.01,-54
1950.05,-55
1949.09,-55
1948.12,-53
1947.16,-55
1946.19,-64
1945.23,-74
1944.27,-75
1943.30,-65
1942.34,-56
1941.37,-52
1940.41,-48
1939.44,-43
1938.48,-45
1937.52,-54
1936.55,-64
1935.59,-69
1934.62,-68
1933.66,-61
1932.69,-51
1931.73,-40
1930.77,-32
1929.80,-33
1928.84,-45
1927.87,-56
1926.91,-55
1925.94,-50
1924.98,-49
1924.02,-50
1923.05,-47
1922.09,-42
1921.12,-39
1920.16,-38
1919.20,-35
1918.23,-29
1917.27,-21
1916.30,-17
1915.34,-21
1914.37,-30
1913.41,-39
1912.45,-50
1911.48,-62
1910.52,-63
1909.55,-53
1908.59,-45
1907.62,-46
1906.66,-49
1905.70,-51
1904.73,-47
1903.77,-43
1902.80,-39
1901.84,-30
1900.87,-15
1899.91,-7
1898.95,-14
1897.98,-21
1897.02,-15
1896.05,-4
1895.09,4
1894.13,4
1893.16,0
1892.20,-9
1891.23,-12
1890.27,-10
1889.30,-7
1888.34,-4
1887.38,-0
1886.41,4
1885.45,7
1884.48,10
1883.52,11
1882.55,5
1881.59,2
1880.63,5
1879.66,5
1878.70,4
1877.73,8
1876.77,10
1875.80,11
1874.84,16
1873.88,26
1872.91,31
1871.95,31
1870.98,31
1870.02,25
1869.06,16
1868.09,16
1867.13,26
1866.16,37
1865.20,40
1864.23,38
1863.27,31
1862.31,23
1861.34,17
1860.38,11
1859.41,9
1858.45,13
1857.48,23
1856.52,32
1855.56,35
1854.59,34
1853.63,30
1852.66,27
1851.70,31
1850.73,29
1849.77,18
1848.81,10
1847.84,12
1846.88,18
1845.91,20
1844.95,15
1843.98,13
1843.02,21
1842.06,31
1841.09,31
1840.13,19
1839.16,2
1838.20,-6
1837.24,-4
1836.27,7
1835.31,16
1834.34,15
1833.38,5
1832.41,-4
1831.45,-12
1830.49,-16
1829.52,-14
1828.56,-11
1827.59,-10
1826.63,-10
1825.66,-8
1824.70,-5
1823.74,-4
1822.77,-7
1821.81,-7
1820.84,-6
1819.88,-14
1818.91,-23
1817.95,-25
1816.99,-22
1816.02,-23
1815.06,-28
1814.09,-34
1813.13,-35
1812.17,-31
1811.20,-24
1810.24,-14
1809.27,-9
1808.31,-12
1807.34,-15
1806.38,-18
1805.42,-24
1804.45,-32
1803.49,-37
1802.52,-40
1801.56,-40
1800.59,-39
1799.63,-40
1798.67,-39
1797.70,-35
1796.74,-32
1795.77,-30
1794.81,-34
1793.84,-38
1792.88,-39
1791.92,-38
1790.95,-36
1789.99,-36
1789.02,-44
1788.06,-57
1787.10,-62
1786.13,-57
1785.17,-48
1784.20,-37
1783.24,-25
1782.27,-20
1781.31,-26
1780.35,-31
1779.38,-33
1778.42,-35
1777.45,-35
1776.49,-32
1775.52,-32
1774.56,-33
1773.60,-32
1772.63,-34
1771.67,-43
1770.70,-52
1769.74,-50
1768.77,-40
1767.81,-34
1766.85,-36
1765.88,-41
1764.92,-43
1763.95,-40
1762.99,-36
1762.03,-32
1761.06,-33
1760.10,-38
1759.13,-44
1758.17,-51
1757.20,-59
1756.24,-63
1755.28,-60
1754.31,-58
1753.35,-56
1752.38,-51
1751.42,-42
1750.45,-37
1749.49,-35
1748.53,-29
1747.56,-21
1746.60,-14
1745.63,-11
1744.67,-11
1743.70,-11
1742.74,-7
1741.78,-1
1740.81,6
1739.85,12
1738.88,14
1737.92,13
1736.96,6
1735.99,-2
1735.03,-2
1734.06,7
1733.10,17
1732.13,21
1731.17,20
1730.21,14
1729.24,8
1728.28,9
1727.31,12
1726.35,7
1725.38,-8
1724.42,-25
1723.46,-31
1722.49,-29
1721.53,-25
1720.56,-20
1719.60,-16
1718.63,-20
1717.67,-24
1716.71,-23
1715.74,-24
1714.78,-29
1713.81,-35
1712.85,-35
1711.89,-28
1710.92,-25
1709.96,-27
1708.99,-29
1708.03,-27
1707.06,-24
1706.10,-27
1705.14,-32
1704.17,-31
1703.21,-27
1702.24,-24
1701.28,-21
1700.31,-16
1699.35,-12
1698.39,-10
1697.42,-12
1696.46,-18
1695.49,-28
1694.53,-35
1693.56,-35
1692.60,-25
1691.64,-11
1690.67,-4
1689.71,-2
1688.74,-5
1687.78,-12
1686.81,-11
1685.85,-5
1684.89,-0
1683.92,1
1682.96,-0
1681.99,0
1681.03,3
1680.07,8
1679.10,11
1678.14,14
1677.17,15
1676.21,14
1675.24,21
1674.28,34
1673.32,42
1672.35,44
1671.39,42
1670.42,37
1669.46,34
1668.49,42
1667.53,58
1666.57,69
1665.60,72
1664.64,75
1663.67,81
1662.71,82
1661.74,78
1660.78,82
1659.82,98
1658.85,118
1657.89,138
1656.92,155
1655.96,171
1655.00,191
1654.03,215
1653.07,241
1652.10,265
1651.14,282
1650.17,291
1649.21,296
1648.25,295
1647.28,284
1646.32,262
1645.35,233
1644.39,216
1643.42,204
1642.46,186
1641.50,166
1640.53,151
1639.57,142
1638.60,138
1637.64,134
1636.67,130
1635.71,127
1634.75,124
1633.78,118
1632.82,108
1631.85,99
1630.89,94
1629.93,89
1628.96,84
1628.00,80
1627.03,74
1626.07,71
1625.10,72
1624.14,77
1623.18,82
1622.21,82
1621.25,81
1620.28,82
1619.32,87
1618.35,91
1617.39,92
1616.43,95
1615.46,97
1614.50,99
1613.53,108
1612.57,114
1611.60,115
1610.64,115
1609.68,114
1608.71,112
1607.75,110
1606.78,108
1605.82,106
1604.86,105
1603.89,107
1602.93,107
1601.96,101
1601.00,89
1600.03,76
1599.07,66
1598.11,65
1597.14,73
1596.18,77
1595.21,74
1594.25,69
1593.28,63
1592.32,57
1591.36,53
1590.39,52
1589.43,53
1588.46,50
1587.50,46
1586.53,47
1585.57,50
1584.61,52
1583.64,52
1582.68,48
1581.71,41
1580.75,34
1579.79,32
1578.82,34
1577.86,38
1576.89,41
1575.93,42
1574.96,41
1574.00,36
1573.04,25
1572.07,19
1571.11,25
1570.14,36
1569.18,41
1568.21,37
1567.25,31
1566.29,26
1565.32,20
1564.36,14
1563.39,11
1562.43,13
1561.46,18
1560.50,20
1559.54,20
1558.57,21
1557.61,23
1556.64,24
1555.68,25
1554.72,25
1553.75,23
1552.79,22
1551.82,20
1550.86,15
1549.89,10
1548.93,6
1547.97,2
1547.00,-0
1546.04,0
1545.07,0
1544.11,-2
1543.14,-1
1542.18,-2
1541.22,-6
1540.25,-12
1539.29,-19
1538.32,-24
1537.36,-26
1536.39,-23
1535.43,-19
1534.47,-15
1533.50,-12
1532.54,-9
1531.57,-8
1530.61,-9
1529.64,-12
1528.68,-13
1527.72,-13
1526.75,-15
1525.79,-19
1524.82,-20
1523.86,-15
1522.90,-13
1521.93,-19
1520.97,-26
1520.00,-30
1519.04,-28
1518.07,-25
1517.11,-22
1516.15,-22
1515.18,-27
1514.22,-32
1513.25,-34
1512.29,-31
1511.32,-25
1510.36,-20
1509.40,-19
1508.43,-23
1507.47,-26
1506.50,-20
1505.54,-11
1504.57,-8
1503.61,-11
1502.65,-12
1501.68,-8
1500.72,-2
1499.75,1
1498.79,-1
1497.83,-1
1496.86,5
1495.90,18
1494.93,30
1493.97,35
1493.00,38
1492.04,42
1491.08,48
1490.11,57
1489.15,68
1488.18,79
1487.22,88
1486.25,99
1485.29,113
1484.33,128
1483.36,140
1482.40,154
1481.43,176
1480.47,202
1479.50,231
1478.54,260
1477.58,291
1476.61,323
1475.65,361
1474.68,413
1473.72,473
1472.76,530
1471.79,589
1470.83,657
1469.86,737
1468.90,825
1467.93,919
1466.97,1011
1466.01,1097
1465.04,1177
1464.08,1248
1463.11,1311
1462.15,1368
1461.18,1416
1460.22,1451
1459.26,1471
1458.29,1484
1457.33,1498
1456.36,1509
1455.40,1510
1454.43,1499
1453.47,1482
1452.51,1470
1451.54,1469
1450.58,1476
1449.61,1489
1448.65,1510
1447.69,1545
1446.72,1588
1445.76,1654
1444.79,1749
1443.83,1877
1442.86,2038
1441.90,2216
1440.94,2394
1439.97,2552
1439.01,2635
1438.04,2654
1437.08,2603
1436.11,2474
1435.15,2296
1434.19,2091
1433.22,1868
1432.26,1655
1431.29,1459
1430.33,1279
1429.36,1124
1428.40,993
1427.44,881
1426.47,789
1425.51,724
1424.54,677
1423.58,645
1422.62,634
1421.65,655
1420.69,716
1419.72,805
1418.76,904
1417.79,998
1416.83,1067
1415.87,1071
1414.90,1024
1413.94,898
1412.97,713
1412.01,544
1411.04,377
1410.08,245
1409.12,163
1408.15,111
1407.19,72
1406.22,48
1405.26,36
1404.29,28
1403.33,23
1402.37,18
1401.40,14
1400.44,9
1399.47,5
1398.51,3
1397.55,3
1396.58,-0
1395.62,-3
1394.65,-2
1393.69,-1
1392.72,3
1391.76,4
1390.80,-0
1389.83,-6
1388.87,-8
1387.90,-7
1386.94,-5
1385.97,-4
1385.01,-5
1384.05,-4
1383.08,0
1382.12,8
1381.15,15
1380.19,23
1379.22,30
1378.26,36
1377.30,44
1376.33,56
1375.37,72
1374.40,92
1373.44,116
1372.47,145
1371.51,172
1370.55,191
1369.58,202
1368.62,203
1367.65,196
1366.69,184
1365.73,165
1364.76,141
1363.80,120
1362.83,99
1361.87,83
1360.90,71
1359.94,61
1358.98,48
1358.01,33
1357.05,19
1356.08,9
1355.12,5
1354.15,6
1353.19,9
1352.23,7
1351.26,2
1350.30,-3
1349.33,-4
1348.37,-5
1347.40,-5
1346.44,-3
1345.48,0
1344.51,3
1343.55,2
1342.58,-2
1341.62,-3
1340.66,-0
1339.69,3
1338.73,2
1337.76,-2
1336.80,-5
1335.83,-4
1334.87,-2
1333.91,-0
1332.94,4
1331.98,15
1331.01,32
1330.05,44
1329.08,53
1328.12,63
1327.16,75
1326.19,88
1325.23,100
1324.26,111
1323.30,124
1322.33,139
1321.37,155
1320.41,172
1319.44,189
1318.48,206
1317.51,224
1316.55,245
1315.59,271
1314.62,303
1313.66,335
1312.69,367
1311.73,398
1310.76,432
1309.80,466
1308.84,501
1307.87,538
1306.91,578
1305.94,621
1304.98,668
1304.01,719
1303.05,772
1302.09,834
1301.12,907
1300.16,1044
1299.19,1235
1298.23,1543
1297.26,1982
1296.30,2452
1295.34,2846
1294.37,3143
1293.41,3235
1292.44,3044
1291.48,2641
1290.52,2057
1289.55,1412
1288.59,951
1287.62,680
1286.66,509
1285.69,409
1284.73,369
1283.77,308
1282.80,268
1281.84,236
1280.87,218
1279.91,207
1278.94,195
1277.98,183
1277.02,169
1276.05,155
1275.09,144
1274.12,137
1273.16,135
1272.19,134
1271.23,133
1270.27,130
1269.30,123
1268.34,114
1267.37,107
1266.41,101
1265.45,90
1264.48,78
1263.52,74
1262.55,71
1261.59,67
1260.62,61
1259.66,56
1258.70,48
1257.73,40
1256.77,34
1255.80,33
1254.84,31
1253.87,21
1252.91,8
1251.95,-3
1250.98,-11
1250.02,-16
1249.05,-16
1248.09,-14
1247.12,-13
1246.16,-16
1245.20,-16
1244.23,-10
1243.27,-5
1242.30,-5
1241.34,-9
1240.38,-12
1239.41,-11
1238.45,-10
1237.48,-9
1236.52,-6
1235.55,2
1234.59,10
1233.63,13
1232.66,13
1231.70,9
1230.73,3
1229.77,-4
1228.80,-8
1227.84,-7
1226.88,-5
1225.91,-2
1224.95,0
1223.98,1
1223.02,0
1222.05,0
1221.09,2
1220.13,7
1219.16,11
1218.20,12
1217.23,9
1216.27,6
1215.30,3
1214.34,1
1213.38,-2
1212.41,-3
1211.45,-4
1210.48,-5
1209.52,-3
1208.56,3
1207.59,9
1206.63,13
1205.66,17
1204.70,22
1203.73,29
1202.77,36
1201.81,42
1200.84,44
1199.88,42
1198.91,37
1197.95,33
1196.98,31
1196.02,31
1195.06,33
1194.09,31
1193.13,26
1192.16,21
1191.20,20
1190.23,23
1189.27,27
1188.31,31
1187.34,35
1186.38,39
1185.41,45
1184.45,53
1183.49,62
1182.52,63
1181.56,60
1180.59,57
1179.63,60
1178.66,67
1177.70,76
1176.74,85
1175.77,97
1174.81,116
1173.84,142
1172.88,176
1171.91,217
1170.95,255
1169.99,285
1169.02,306
1168.06,304
1167.09,286
1166.13,251
1165.16,198
1164.20,154
1163.24,126
1162.27,109
1161.31,98
1160.34,92
1159.38,91
1158.42,90
1157.45,90
1156.49,87
1155.52,85
1154.56,88
1153.59,94
1152.63,99
1151.67,97
1150.70,94
1149.74,95
1148.77,102
1147.81,112
1146.84,123
1145.88,136
1144.92,151
1143.95,166
1142.99,181
1142.02,197
1141.06,215
1140.09,242
1139.13,273
1138.17,317
1137.20,375
1136.24,452
1135.27,556
1134.31,684
1133.35,843
1132.38,1032
1131.42,1231
1130.45,1443
1129.49,1626
1128.52,1745
1127.56,1782
1126.60,1736
1125.63,1597
1124.67,1390
1123.70,1176
1122.74,946
1121.77,759
1120.81,617
1119.85,505
1118.88,424
1117.92,371
1116.95,324
1115.99,288
1115.02,259
1114.06,235
1113.10,218
1112.13,207
1111.17,199
1110.20,193
1109.24,186
1108.28,181
1107.31,177
1106.35,173
1105.38,173
1104.42,176
1103.45,174
1102.49,165
1101.53,155
1100.56,158
1099.60,172
1098.63,186
1097.67,195
1096.70,200
1095.74,203
1094.78,204
1093.81,208
1092.85,219
1091.88,237
1090.92,254
1089.95,271
1088.99,286
1088.03,301
1087.06,315
1086.10,328
1085.13,341
1084.17,351
1083.21,359
1082.24,364
1081.28,368
1080.31,368
1079.35,367
1078.38,365
1077.42,363
1076.46,366
1075.49,369
1074.53,370
1073.56,371
1072.60,377
1071.63,393
1070.67,421
1069.71,471
1068.74,542
1067.78,683
1066.81,875
1065.85,1099
1064.88,1349
1063.92,1593
1062.96,1780
1061.99,1895
1061.03,1907
1060.06,1778
1059.10,1573
1058.13,1334
1057.17,1075
1056.21,835
1055.24,654
1054.28,503
1053.31,396
1052.35,334
1051.39,281
1050.42,243
1049.46,212
1048.49,185
1047.53,162
1046.56,146
1045.60,136
1044.64,128
1043.67,116
1042.71,103
1041.74,95
1040.78,92
1039.81,91
1038.85,90
1037.89,88
1036.92,81
1035.96,73
1034.99,66
1034.03,61
1033.06,54
1032.10,48
1031.14,43
1030.17,43
1029.21,49
1028.24,53
1027.28,52
1026.32,47
1025.35,44
1024.39,45
1023.42,49
1022.46,45
1021.49,39
1020.53,38
1019.57,40
1018.60,39
1017.64,35
1016.67,31
1015.71,28
1014.74,27
1013.78,24
1012.82,18
1011.85,10
1010.89,3
1009.92,-1
1008.96,-1
1007.99,3
1007.03,8
1006.07,6
1005.10,-0
1004.14,-4
1003.17,-2
1002.21,3
1001.25,6
1000.28,8
999.32,6
998.35,1
997.39,-3
996.42,-4
995.46,-1
994.50,1
993.53,0
992.57,-2
991.60,-3
990.64,-1
989.67,1
988.71,1
987.75,1
986.78,1
985.82,1
984.85,3
983.89,4
982.92,4
981.96,2
981.00,0
980.03,1
979.07,4
978.10,6
977.14,5
976.18,3
975.21,-1
974.25,-6
973.28,-10
972.32,-11
971.35,-10
970.39,-7
969.43,-2
968.46,1
967.50,0
966.53,-4
965.57,-11
964.60,-15
963.64,-18
962.68,-18
961.71,-15
960.75,-9
959.78,-5
958.82,-6
957.85,-10
956.89,-13
955.93,-11
954.96,-9
954.00,-8
953.03,-7
952.07,-6
951.11,-6
950.14,-6
949.18,-2
948.21,2
947.25,3
946.28,0
945.32,-3
944.36,-9
943.39,-17
942.43,-24
941.46,-23
940.50,-19
939.53,-13
938.57,-6
937.61,3
936.64,14
935.68,26
934.71,30
933.75,34
932.78,42
931.82,53
930.86,63
929.89,68
928.93,68
927.96,69
927.00,71
926.04,71
925.07,67
924.11,61
923.14,57
922.18,56
921.21,57
920.25,62
919.29,67
918.32,65
917.36,55
916.39,45
915.43,43
914.46,44
913.50,41
912.54,34
911.57,28
910.61,26
909.64,27
908.68,25
907.71,20
906.75,13
905.79,4
904.82,-7
903.86,-12
902.89,-11
901.93,-6
900.96,-4
900.00,-6
899.04,-10
898.07,-14
897.11,-19
896.14,-22
895.18,-19
894.22,-7
893.25,14
892.29,37
891.32,58
890.36,75
889.39,83
888.43,82
887.47,79
886.50,91
885.54,107
884.57,112
883.61,112
882.64,106
881.68,95
880.72,77
879.75,48
878.79,14
877.82,-3
876.86,-5
875.89,-0
874.93,1
873.97,-2
873.00,-5
872.04,0
871.07,8
870.11,13
869.15,13
868.18,9
867.22,6
866.25,3
865.29,0
864.32,1
863.36,3
862.40,2
861.43,-0
860.47,2
859.50,7
858.54,4
857.57,-5
856.61,-14
855.65,-18
854.68,-17
853.72,-13
852.75,-9
851.79,-6
850.82,-0
849.86,8
848.90,12
847.93,9
846.97,0
846.00,-3
845.04,-6
844.08,-10
843.11,-13
842.15,-11
841.18,-6
840.22,3
839.25,11
838.29,16
837.33,5
836.36,-36
835.40,-94
834.43,-128
833.47,-86
832.50,-17
831.54,0
830.58,-2
829.61,-2
828.65,1
827.68,1
826.72,-2
825.75,-7
824.79,-12
823.83,-17
822.86,-19
821.90,-16
820.93,-10
819.97,-8
819.01,-14
818.04,-21
817.08,-27
816.11,-30
815.15,-32
814.18,-33
813.22,-32
812.26,-27
811.29,-20
810.33,-15
809.36,-12
808.40,-9
807.43,-7
806.47,-5
805.51,-4
804.54,-5
803.58,-7
802.61,-6
801.65,-2
800.68,3
799.72,4
798.76,5
797.79,8
796.83,11
795.86,12
794.90,7
793.94,2
792.97,-3
792.01,-10
791.04,-14
790.08,-14
789.11,-12
788.15,-13
787.19,-15
786.22,-14
785.26,-12
784.29,-8
783.33,-3
782.36,4
781.40,13
780.44,18
779.47,19
778.51,16
777.54,14
776.58,15
775.61,18
774.65,22
773.69,23
772.72,21
771.76,19
770.79,17
769.83,19
768.87,23
767.90,28
766.94,31
765.97,31
765.01,30
764.04,29
763.08,30
762.12,30
761.15,27
760.19,24
759.22,21
758.26,15
757.29,7
756.33,3
755.37,-0
754.40,-1
753.44,-1
752.47,2
751.51,4
750.54,7
749.58,10
748.62,16
747.65,23
746.69,30
745.72,35
744.76,39
743.79,40
742.83,39
741.87,33
740.90,27
739.94,24
738.97,26
738.01,29
737.05,32
736.08,35
735.12,39
734.15,43
733.19,48
732.22,54
731.26,60
730.30,65
729.33,72
728.37,81
727.40,89
726.44,93
725.47,91
724.51,86
723.55,80
722.58,77
721.62,76
720.65,75
719.69,73
718.72,70
717.76,67
716.80,67
715.83,67
714.87,67
713.90,67
712.94,65
711.98,62
711.01,60
710.05,58
709.08,56
708.12,55
707.15,56
706.19,55
705.23,55
704.26,55
703.30,54
702.33,51
701.37,48
700.40,44
699.44,38
698.48,32
697.51,27
696.55,22
695.58,18
694.62,13
693.65,9
692.69,6
691.73,3
690.76,-0
689.80,-3
688.83,-8
687.87,-10
686.91,16
685.94,35
684.98,25
684.01,5
683.05,13
682.08,36
681.12,17
680.16,-9
679.19,-17
678.23,-8
677.26,5
676.30,11
675.33,11
674.37,10
673.41,9
672.44,9
671.48,11
670.51,12
669.55,9
668.58,6
667.62,3
666.66,1
665.69,-1
664.73,0
663.76,1
662.80,1
661.84,2
660.87,5
659.91,9
658.94,13
657.98,12
657.01,10
656.05,12
655.09,18
654.12,23
653.16,28
652.19,30
651.23,31
650.26,28
649.30,24
648.34,21
647.37,19
646.41,21
645.44,27
644.48,33
643.51,37
642.55,39
641.59,38
640.62,33
639.66,27
638.69,26
637.73,29
636.77,34
635.80,39
634.84,43
633.87,43
632.91,40
631.94,39
630.98,43
630.02,47
629.05,44
628.09,36
627.12,32
626.16,29
625.19,24
624.23,17
623.27,6
622.30,-5
621.34,-10
620.37,-12
619.41,-13
618.44,-14
617.48,-14
616.52,-16
615.55,-17
614.59,-18
613.62,-18
612.66,-19
611.70,-20
610.73,-21
609.77,-22
608.80,-24
607.84,-26
606.87,-26
605.91,-24
604.95,-22
603.98,-19
603.02,-17
602.05,-18
601.09,-21
600.12,-25
599.16,-26
598.20,-28
597.23,-29
596.27,-32
595.30,-34
594.34,-37
593.37,-37
592.41,-34
591.45,-29
590.48,-24
589.52,-22
588.55,-25
587.59,-29
586.62,-31
585.66,-32
584.70,-30
583.73,-28
582.77,-23
581.80,-20
580.84,-18
579.88,-17
578.91,-17
577.95,-16
576.98,-14
576.02,-10
575.05,-7
574.09,-6
573.13,-7
572.16,-8
571.20,-7
570.23,-7
569.27,-8
568.30,-9
567.34,-10
566.38,-9
565.41,-6
564.45,-4
563.48,-1
562.52,0
561.55,-0
560.59,-2
559.63,-6
558.66,-8
557.70,-9
556.73,-6
555.77,-3
554.81,0
553.84,-2
552.88,-3
551.91,-4
550.95,-4
549.98,-3
549.02,-2
548.06,-2
547.09,-3
546.13,-6
545.16,-10
544.20,-13
543.23,-15
542.27,-15
541.31,-16
540.34,-16
539.38,-17
538.41,-18
537.45,-20
536.48,-20
535.52,-19
534.56,-19
533.59,-19
532.63,-19
531.66,-19
530.70,-19
529.74,-20
528.77,-20
527.81,-18
526.84,-16
525.88,-14
524.91,-13
523.95,-13
522.99,-13
522.02,-12
521.06,-10
520.09,-7
519.13,-5
518.16,-4
517.20,-6
516.24,-10
515.27,-12
514.31,-11
513.34,-8
512.38,-5
511.41,-5
510.45,-7
509.49,-10
508.52,-12
507.56,-12
506.59,-11
505.63,-9
504.67,-7
503.70,-8
502.74,-8
501.77,-7
500.81,-6
499.84,-7
498.88,-11
497.92,-13
496.95,-14
495.99,-13
495.02,-14
494.06,-16
493.09,-17
492.13,-15
491.17,-12
490.20,-10
489.24,-8
488.27,-4
487.31,6
486.34,19
485.38,32
484.42,47
483.45,61
482.49,65
481.52,66
480.56,60
479.60,48
478.63,31
477.67,17
476.70,10
475.74,4
474.77,-0
473.81,-3
472.85,-5
471.88,-5
470.92,-4
469.95,-2
468.99,0
468.02,1
467.06,1
466.10,0
465.13,0
464.17,1
463.20,2
462.24,4
461.27,6
460.31,5
459.35,3
458.38,0
457.42,0
456.45,2
455.49,8
454.53,15
453.56,20
452.60,22
451.63,19
450.67,15
449.70,15
448.74,15
447.78,16
446.81,16
445.85,14
444.88,13
443.92,14
442.95,14
441.99,14
441.03,12
440.06,10
439.10,7
438.13,4
437.17,2
436.20,1
435.24,1
434.28,0
433.31,-2
432.35,-5
431.38,-8
430.42,-9
429.45,-7
428.49,-4
427.53,-2
426.56,-1
425.60,-2
424.63,-6
423.67,-10
422.71,-10
421.74,-7
420.78,-4
419.81,-1
418.85,-2
417.88,-4
416.92,-6
415.96,-7
414.99,-7
414.03,-8
413.06,-8
412.10,-9
411.13,-9
410.17,-8
409.21,-7
408.24,-5
407.28,-6
406.31,-9
405.35,-10
404.38,-9
403.42,-4
402.46,-0
401.49,0
400.53,-1
399.56,-0
398.60,3
397.64,4
396.67,2
395.71,-1
394.74,-2
393.78,1
392.81,5
391.85,6
390.89,4
389.92,-1
388.96,-8
387.99,-14
387.03,-10
386.06,-0
385.10,8
384.14,10
383.17,5
382.21,-1
381.24,-4
380.28,-6
379.31,-7
378.35,-10
377.39,-12
376.42,-11
375.46,-8
374.49,-3
373.53,2
372.57,6
371.60,6
370.64,4
369.67,2
368.71,1
367.74,-0
366.78,-2
365.82,-3
364.85,-5
363.89,-6
362.92,-6
361.96,-7
360.99,-8
360.03,-10
359.07,-12
358.10,-13
357.14,-11
356.17,-5
355.21,2
354.24,9
353.28,13
352.32,13
351.35,5
350.39,-4
349.42,-10
348.46,-10
347.50,-6
346.53,-1
345.57,3
344.60,5
343.64,6
342.67,5
341.71,3
340.75,1
339.78,-0
338.82,0
337.85,2
336.89,5
335.92,5
334.96,3
334.00,0
333.03,-2
332.07,-4
331.10,-4
330.14,-2
329.17,-0
328.21,1
327.25,1
326.28,4
325.32,8
324.35,11
323.39,9
322.43,3
321.46,-2
320.50,-1
319.53,1
318.57,0
317.60,-5
316.64,-11
315.68,-13
314.71,-12
313.75,-10
312.78,-9
311.82,-9
310.85,-7
309.89,-6
308.93,-5
307.96,-7
307.00,-10
306.03,-15
305.07,-20
304.10,-22
303.14,-19
302.18,-14
301.21,-12
300.25,-10
299.28,-10
298.32,-10
297.36,-12
296.39,-10
295.43,-6
294.46,-2
293.50,1
292.53,2
291.57,0
290.61,-1
289.64,-2
288.68,-2
287.71,-2
286.75,-1
285.78,-1
284.82,-3
283.86,-6
282.89,-9
281.93,-8
280.96,-6
280.00,-4
279.03,-3
278.07,-3
277.11,-8
276.14,-13
275.18,-17
274.21,-18
273.25,-17
272.28,-16
271.32,-14
270.36,-13
269.39,-11
268.43,-8
267.46,-8
266.50,-10
265.54,-12
264.57,-14
263.61,-15
262.64,-15
261.68,-14
260.71,-10
259.75,-6
258.79,-3
257.82,-2
256.86,-3
255.89,-6
254.93,-8
253.96,-10
253.00,-11
252.04,-8
251.07,-3
250.11,-0
249.14,1
248.18,-2
247.21,-2
246.25,-2
245.29,-2
244.32,-1
243.36,-1
242.39,0
241.43,1
240.47,3
239.50,5
238.54,6
237.57,6
236.61,7
235.64,9
234.68,13
233.72,18
232.75,24
231.79,34
230.82,49
229.86,69
228.89,98
227.93,141
226.97,176
226.00,192
225.04,186
224.07,170
223.11,157
222.14,140
221.18,116
220.22,86
219.25,53
218.29,46
217.32,52
216.36,58
215.40,57
214.43,51
213.47,47
212.50,46
211.54,48
210.57,52
209.61,57
208.65,60
207.68,60
206.72,57
205.75,52
204.79,50
203.82,53
202.86,57
201.90,59
200.93,60
199.97,62
199.00,64
198.04,66
197.07,67
196.11,69
195.15,71
194.18,70
193.22,68
192.25,66
191.29,63
190.33,61
189.36,61
188.40,60
187.43,58
186.47,56
185.50,57
184.54,60
183.58,62
182.61,63
181.65,61
180.68,58
179.72,56
178.75,55
177.79,56
176.83,59
175.86,62
174.90,64
173.93,66
172.97,67
172.00,69
171.04,71
170.08,72
169.11,72
168.15,72
167.18,73
166.22,74
165.26,77
164.29,82
163.33,89
162.36,94
161.40,98
160.43,103
159.47,107
158.51,113
157.54,119
156.58,123
155.61,127
154.65,130
153.68,135
152.72,142
151.76,148
150.79,153
149.83,158
148.86,164
147.90,171
146.93,178
145.97,184
145.01,189
144.04,194
143.08,199
142.11,205
141.15,213
140.19,223
139.22,234
138.26,247
137.29,261
136.33,275
135.36,288
134.40,298
133.44,302
132.47,306
131.51,312
130.54,322
129.58,336
128.61,352
127.65,367
126.69,381
125.72,393
124.76,406
123.79,420
122.83,435
121.86,451
120.90,471
119.94,493
118.97,515
118.01,537
117.04,559
116.08,580
115.11,601
114.15,625
113.19,649
112.22,672
111.26,692
110.29,719
109.33,753
108.37,791
107.40,830
106.44,860
105.47,887
104.51,913
103.54,939
102.58,964
101.62,992
100.65,1020
99.69,1053
98.72,1091
97.76,1132
96.79,1166
95.83,1198
94.87,1231
93.90,1268
92.94,1307
91.97,1346
91.01,1382
90.04,1415
89.08,1446
88.12,1472
87.15,1497
86.19,1527
85.22,1563
84.26,1601
83.30,1631
82.33,1660
81.37,1689
80.40,1722
79.44,1754
78.47,1784
77.51,1812
76.55,1843
