Created As Omnic File,PLAS 213
Raman Shift / cm-1,INT
3418.58,10
3417.61,71
3416.65,79
3415.68,66
3414.72,86
3413.76,112
3412.79,88
3411.83,22
3410.86,-57
3409.90,-86
3408.94,-16
3407.97,53
3407.01,63
3406.04,44
3405.08,42
3404.11,98
3403.15,169
3402.19,166
3401.22,83
3400.26,18
3399.29,0
3398.33,-17
3397.36,-25
3396.40,-11
3395.44,0
3394.47,12
3393.51,30
3392.54,56
3391.58,107
3390.61,168
3389.65,170
3388.69,84
3387.72,18
3386.76,-4
3385.79,11
3384.83,33
3383.87,23
3382.90,23
3381.94,55
3380.97,58
3380.01,2
3379.04,-73
3378.08,-102
3377.12,-53
3376.15,39
3375.19,80
3374.22,85
3373.26,90
3372.29,71
3371.33,38
3370.37,-8
3369.40,-71
3368.44,-92
3367.47,-70
3366.51,-53
3365.54,-38
3364.58,-35
3363.62,-47
3362.65,-37
3361.69,-22
3360.72,-34
3359.76,-56
3358.80,-64
3357.83,-48
3356.87,-2
3355.90,25
3354.94,-5
3353.97,-52
3353.01,-108
3352.05,-136
3351.08,-102
3350.12,-43
3349.15,-2
3348.19,14
3347.22,16
3346.26,14
3345.30,24
3344.33,43
3343.37,14
3342.40,-26
3341.44,-32
3340.47,-8
3339.51,38
3338.55,54
3337.58,21
3336.62,-29
3335.65,-53
3334.69,-43
3333.73,-11
3332.76,31
3331.80,55
3330.83,46
3329.87,-20
3328.90,-116
3327.94,-152
3326.98,-112
3326.01,-71
3325.05,-19
3324.08,16
3323.12,-16
3322.15,-62
3321.19,-25
3320.23,55
3319.26,85
3318.30,81
3317.33,62
3316.37,26
3315.40,0
3314.44,2
3313.48,-10
3312.51,-27
3311.55,-19
3310.58,-15
3309.62,15
3308.66,69
3307.69,93
3306.73,74
3305.76,31
3304.80,-1
3303.83,-10
3302.87,-9
3301.91,-10
3300.94,-9
3299.98,16
3299.01,56
3298.05,88
3297.08,102
3296.12,72
3295.16,42
3294.19,81
3293.23,140
3292.26,193
3291.30,206
3290.33,95
3289.37,-57
3288.41,-71
3287.44,-31
3286.48,-57
3285.51,-102
3284.55,-70
3283.59,9
3282.62,54
3281.66,65
3280.69,60
3279.73,50
3278.76,32
3277.80,-12
3276.84,-69
3275.87,-117
3274.91,-126
3273.94,-95
3272.98,-66
3272.01,-74
3271.05,-93
3270.09,-74
3269.12,-57
3268.16,-80
3267.19,-118
3266.23,-115
3265.26,-86
3264.30,-101
3263.34,-117
3262.37,-59
3261.41,26
3260.44,77
3259.48,90
3258.51,32
3257.55,-19
3256.59,-30
3255.62,-23
3254.66,14
3253.69,1
3252.73,-43
3251.77,-60
3250.80,-62
3249.84,-82
3248.87,-97
3247.91,-88
3246.94,-55
3245.98,-20
3245.02,-7
3244.05,6
3243.09,9
3242.12,-16
3241.16,-55
3240.19,-70
3239.23,-52
3238.27,-20
3237.30,28
3236.34,58
3235.37,37
3234.41,3
3233.44,-13
3232.48,-8
3231.52,7
3230.55,10
3229.59,-7
3228.62,-34
3227.66,-29
3226.70,-19
3225.73,-90
3224.77,-106
3223.80,0
3222.84,43
3221.87,-20
3220.91,-54
3219.95,-19
3218.98,12
3218.02,6
3217.05,-5
3216.09,12
3215.12,45
3214.16,70
3213.20,72
3212.23,48
3211.27,28
3210.30,4
3209.34,-12
3208.37,-15
3207.41,-28
3206.45,-40
3205.48,-19
3204.52,-9
3203.55,-31
3202.59,-19
3201.63,29
3200.66,57
3199.70,38
3198.73,4
3197.77,-20
3196.80,-40
3195.84,-34
3194.88,-17
3193.91,-20
3192.95,-23
3191.98,-28
3191.02,-49
3190.05,-58
3189.09,-47
3188.13,-25
3187.16,-6
3186.20,19
3185.23,41
3184.27,32
3183.30,1
3182.34,-26
3181.38,-35
3180.41,-14
3179.45,11
3178.48,27
3177.52,45
3176.56,73
3175.59,77
3174.63,22
3173.66,-59
3172.70,-120
3171.73,-104
3170.77,4
3169.81,107
3168.84,131
3167.88,94
3166.91,43
3165.95,5
3164.98,-48
3164.02,-106
3163.06,-125
3162.09,-84
3161.13,-7
3160.16,51
3159.20,48
3158.23,-6
3157.27,-11
3156.31,35
3155.34,84
3154.38,158
3153.41,179
3152.45,97
3151.49,23
3150.52,45
3149.56,121
3148.59,139
3147.63,107
3146.66,124
3145.70,189
3144.74,217
3143.77,204
3142.81,193
3141.84,198
3140.88,213
3139.91,198
3138.95,125
3137.99,64
3137.02,72
3136.06,76
3135.09,60
3134.13,41
3133.16,33
3132.20,48
3131.24,44
3130.27,3
3129.31,-38
3128.34,-27
3127.38,13
3126.42,-9
3125.45,-54
3124.49,-23
3123.52,23
3122.56,34
3121.59,-1
3120.63,-58
3119.67,-61
3118.70,-34
3117.74,-31
3116.77,-62
3115.81,-107
3114.84,-148
3113.88,-169
3112.92,-143
3111.95,-84
3110.99,-28
3110.02,1
3109.06,-11
3108.09,-35
3107.13,-61
3106.17,-120
3105.20,-165
3104.24,-150
3103.27,-93
3102.31,-11
3101.34,49
3100.38,68
3099.42,74
3098.45,48
3097.49,11
3096.52,20
3095.56,50
3094.60,44
3093.63,10
3092.67,23
3091.70,81
3090.74,64
3089.77,14
3088.81,59
3087.85,94
3086.88,79
3085.92,50
3084.95,36
3083.99,65
3083.02,107
3082.06,108
3081.10,50
3080.13,4
3079.17,21
3078.20,30
3077.24,14
3076.27,56
3075.31,147
3074.35,196
3073.38,156
3072.42,104
3071.45,123
3070.49,182
3069.53,232
3068.56,276
3067.60,313
3066.63,333
3065.67,351
3064.70,380
3063.74,396
3062.78,448
3061.81,514
3060.85,544
3059.88,598
3058.92,746
3057.95,945
3056.99,1097
3056.03,1184
3055.06,1269
3054.10,1403
3053.13,1579
3052.17,1757
3051.20,1878
3050.24,1927
3049.28,1950
3048.31,1917
3047.35,1777
3046.38,1627
3045.42,1481
3044.46,1290
3043.49,1110
3042.53,983
3041.56,953
3040.60,948
3039.63,902
3038.67,837
3037.71,778
3036.74,720
3035.78,643
3034.81,506
3033.85,338
3032.88,251
3031.92,272
3030.96,272
3029.99,170
3029.03,101
3028.06,87
3027.10,79
3026.13,82
3025.17,74
3024.21,42
3023.24,11
3022.28,-4
3021.31,-31
3020.35,-108
3019.39,-149
3018.42,-83
3017.46,17
3016.49,87
3015.53,96
3014.56,54
3013.60,13
3012.64,12
3011.67,47
3010.71,65
3009.74,22
3008.78,-25
3007.81,-22
3006.85,1
3005.89,22
3004.92,36
3003.96,21
3002.99,-24
3002.03,-64
3001.06,-81
3000.10,-76
2999.14,-62
2998.17,-60
2997.21,-92
2996.24,-138
2995.28,-178
2994.32,-210
2993.35,-164
2992.39,-120
2991.42,-129
2990.46,-120
2989.49,-68
2988.53,-20
2987.57,-18
2986.60,-93
2985.64,-188
2984.67,-236
2983.71,-245
2982.74,-217
2981.78,-170
2980.82,-130
2979.85,-118
2978.89,-118
2977.92,-96
2976.96,-65
2975.99,-61
2975.03,-64
2974.07,-51
2973.10,-45
2972.14,-49
2971.17,-75
2970.21,-111
2969.25,-117
2968.28,-109
2967.32,-77
2966.35,-21
2965.39,-5
2964.42,-36
2963.46,-64
2962.50,-88
2961.53,-88
2960.57,-98
2959.60,-128
2958.64,-152
2957.67,-155
2956.71,-126
2955.75,-77
2954.78,-53
2953.82,-96
2952.85,-167
2951.89,-183
2950.92,-136
2949.96,-59
2949.00,27
2948.03,58
2947.07,44
2946.10,20
2945.14,-28
2944.17,-74
2943.21,-82
2942.25,-36
2941.28,16
2940.32,33
2939.35,19
2938.39,9
2937.43,9
2936.46,22
2935.50,30
2934.53,55
2933.57,109
2932.60,132
2931.64,97
2930.68,52
2929.71,30
2928.75,29
2927.78,61
2926.82,116
2925.85,131
2924.89,71
2923.93,0
2922.96,-20
2922.00,8
2921.03,47
2920.07,62
2919.10,57
2918.14,76
2917.18,144
2916.21,184
2915.25,83
2914.28,-81
2913.32,-115
2912.36,-69
2911.39,-56
2910.43,-72
2909.46,-73
2908.50,-42
2907.53,5
2906.57,28
2905.61,22
2904.64,-7
2903.68,-57
2902.71,-43
2901.75,25
2900.78,46
2899.82,25
2898.86,0
2897.89,-7
2896.93,2
2895.96,-17
2895.00,-70
2894.03,-85
2893.07,-66
2892.11,-88
2891.14,-85
2890.18,-48
2889.21,-57
2888.25,-111
2887.29,-139
2886.32,-79
2885.36,40
2884.39,116
2883.43,80
2882.46,0
2881.50,-35
2880.54,-18
2879.57,61
2878.61,143
2877.64,105
2876.68,7
2875.71,-29
2874.75,12
2873.79,67
2872.82,59
2871.86,-2
2870.89,-75
2869.93,-157
2868.96,-214
2868.00,-197
2867.04,-110
2866.07,-28
2865.11,-8
2864.14,0
2863.18,50
2862.22,71
2861.25,16
2860.29,-41
2859.32,-24
2858.36,42
2857.39,101
2856.43,115
2855.47,119
2854.50,138
2853.54,122
2852.57,84
2851.61,46
2850.64,1
2849.68,-14
2848.72,-16
2847.75,-72
2846.79,-126
2845.82,-134
2844.86,-122
2843.89,-129
2842.93,-121
2841.97,-62
2841.00,-19
2840.04,-8
2839.07,-3
2838.11,-19
2837.15,-77
2836.18,-147
2835.22,-168
2834.25,-145
2833.29,-141
2832.32,-154
2831.36,-118
2830.40,-46
2829.43,-12
2828.47,-27
2827.50,-17
2826.54,35
2825.57,36
2824.61,-62
2823.65,-111
2822.68,-17
2821.72,133
2820.75,217
2819.79,232
2818.82,187
2817.86,96
2816.90,14
2815.93,-20
2814.97,17
2814.00,79
2813.04,72
2812.08,11
2811.11,-2
2810.15,41
2809.18,101
2808.22,149
2807.25,128
2806.29,64
2805.33,33
2804.36,27
2803.40,28
2802.43,33
2801.47,37
2800.50,26
2799.54,-1
2798.58,3
2797.61,55
2796.65,69
2795.68,19
2794.72,-12
2793.75,-0
2792.79,10
2791.83,6
2790.86,-11
2789.90,-24
2788.93,-30
2787.97,-31
2787.00,12
2786.04,101
2785.08,167
2784.11,159
2783.15,99
2782.18,20
2781.22,-48
2780.26,-77
2779.29,-69
2778.33,-49
2777.36,-20
2776.40,6
2775.43,-25
2774.47,-94
2773.51,-79
2772.54,4
2771.58,38
2770.61,-15
2769.65,-117
2768.68,-178
2767.72,-163
2766.76,-117
2765.79,-99
2764.83,-117
2763.86,-114
2762.90,-58
2761.93,-6
2760.97,-12
2760.01,-10
2759.04,35
2758.08,83
2757.11,97
2756.15,63
2755.19,6
2754.22,-16
2753.26,25
2752.29,94
2751.33,146
2750.36,191
2749.40,238
2748.44,245
2747.47,199
2746.51,109
2745.54,12
2744.58,-41
2743.61,-18
2742.65,55
2741.69,132
2740.72,164
2739.76,134
2738.79,73
2737.83,26
2736.86,2
2735.90,-7
2734.94,11
2733.97,28
2733.01,24
2732.04,23
2731.08,12
2730.12,10
2729.15,38
2728.19,81
2727.22,129
2726.26,174
2725.29,184
2724.33,137
2723.37,72
2722.40,49
2721.44,49
2720.47,0
2719.51,-46
2718.54,22
2717.58,161
2716.62,269
2715.65,291
2714.69,251
2713.72,189
2712.76,142
2711.79,129
2710.83,113
2709.87,95
2708.90,114
2707.94,104
2706.97,51
2706.01,-12
2705.05,-57
2704.08,-24
2703.12,67
2702.15,133
2701.19,142
2700.22,107
2699.26,49
2698.30,1
2697.33,0
2696.37,34
2695.40,48
2694.44,17
2693.47,-15
2692.51,-11
2691.55,30
2690.58,89
2689.62,154
2688.65,203
2687.69,193
2686.72,129
2685.76,109
2684.80,138
2683.83,152
2682.87,144
2681.90,90
2680.94,6
2679.98,-30
2679.01,5
2678.05,66
2677.08,105
2676.12,122
2675.15,117
2674.19,79
2673.23,48
2672.26,29
2671.30,-7
2670.33,-29
2669.37,-44
2668.40,-68
2667.44,-77
2666.48,-51
2665.51,14
2664.55,83
2663.58,104
2662.62,73
2661.65,43
2660.69,37
2659.73,19
2658.76,3
2657.80,71
2656.83,164
2655.87,203
2654.91,182
2653.94,111
2652.98,47
2652.01,46
2651.05,104
2650.08,150
2649.12,132
2648.16,81
2647.19,42
2646.23,26
2645.26,42
2644.30,80
2643.33,147
2642.37,242
2641.41,327
2640.44,352
2639.48,292
2638.51,188
2637.55,124
2636.58,100
2635.62,51
2634.66,-12
2633.69,-64
2632.73,-105
2631.76,-105
2630.80,-63
2629.83,5
2628.87,117
2627.91,251
2626.94,295
2625.98,194
2625.01,44
2624.05,-15
2623.09,19
2622.12,16
2621.16,-43
2620.19,-42
2619.23,-6
2618.26,-24
2617.30,-68
2616.34,-71
2615.37,-48
2614.41,-59
2613.44,-96
2612.48,-121
2611.51,-122
2610.55,-98
2609.59,-43
2608.62,-4
2607.66,-25
2606.69,-68
2605.73,-99
2604.76,-99
2603.80,-64
2602.84,-28
2601.87,-23
2600.91,-43
2599.94,-78
2598.98,-103
2598.02,-97
2597.05,-92
2596.09,-85
2595.12,-54
2594.16,-29
2593.19,-17
2592.23,0
2591.27,4
2590.30,-31
2589.34,-76
2588.37,-77
2587.41,-49
2586.44,-43
2585.48,-54
2584.52,-85
2583.55,-162
2582.59,-214
2581.62,-187
2580.66,-102
2579.69,-14
2578.73,6
2577.77,-62
2576.80,-143
2575.84,-162
2574.87,-135
2573.91,-91
2572.95,-30
2571.98,-19
2571.02,-96
2570.05,-170
2569.09,-172
2568.12,-112
2567.16,-27
2566.20,4
2565.23,-39
2564.27,-104
2563.30,-146
2562.34,-133
2561.37,-75
2560.41,-46
2559.45,-80
2558.48,-131
2557.52,-175
2556.55,-192
2555.59,-157
2554.62,-94
2553.66,-76
2552.70,-136
2551.73,-220
2550.77,-267
2549.80,-289
2548.84,-316
2547.88,-330
2546.91,-292
2545.95,-234
2544.98,-216
2544.02,-182
2543.05,-113
2542.09,-63
2541.13,-63
2540.16,-112
2539.20,-173
2538.23,-187
2537.27,-141
2536.30,-96
2535.34,-93
2534.38,-99
2533.41,-101
2532.45,-119
2531.48,-138
2530.52,-152
2529.55,-166
2528.59,-156
2527.63,-107
2526.66,-42
2525.70,0
2524.73,-4
2523.77,-57
2522.81,-134
2521.84,-186
2520.88,-199
2519.91,-178
2518.95,-138
2517.98,-158
2517.02,-208
2516.06,-214
2515.09,-175
2514.13,-96
2513.16,-5
2512.20,20
2511.23,-50
2510.27,-141
2509.31,-195
2508.34,-187
2507.38,-125
2506.41,-79
2505.45,-95
2504.48,-139
2503.52,-152
2502.56,-111
2501.59,-67
2500.63,-77
2499.66,-108
2498.70,-101
2497.74,-43
2496.77,16
2495.81,42
2494.84,33
2493.88,-22
2492.91,-96
2491.95,-143
2490.99,-154
2490.02,-126
2489.06,-78
2488.09,-66
2487.13,-114
2486.16,-184
2485.20,-224
2484.24,-190
2483.27,-103
2482.31,-47
2481.34,-35
2480.38,-51
2479.41,-93
2478.45,-121
2477.49,-139
2476.52,-185
2475.56,-238
2474.59,-250
2473.63,-217
2472.66,-181
2471.70,-184
2470.74,-211
2469.77,-223
2468.81,-206
2467.84,-163
2466.88,-116
2465.92,-93
2464.95,-105
2463.99,-123
2463.02,-130
2462.06,-138
2461.09,-167
2460.13,-213
2459.17,-247
2458.20,-244
2457.24,-244
2456.27,-281
2455.31,-297
2454.34,-246
2453.38,-160
2452.42,-88
2451.45,-87
2450.49,-153
2449.52,-222
2448.56,-249
2447.59,-246
2446.63,-225
2445.67,-194
2444.70,-159
2443.74,-80
2442.77,44
2441.81,125
2440.85,124
2439.88,80
2438.92,19
2437.95,-33
2436.99,-57
2436.02,-57
2435.06,-59
2434.10,-62
2433.13,-42
2432.17,15
2431.20,86
2430.24,98
2429.27,65
2428.31,41
2427.35,0
2426.38,-57
2425.42,-108
2424.45,-128
2423.49,-106
2422.52,-62
2421.56,-11
2420.60,53
2419.63,103
2418.67,103
2417.70,79
2416.74,67
2415.78,39
2414.81,-46
2413.85,-161
2412.88,-255
2411.92,-274
2410.95,-180
2409.99,-43
2409.03,8
2408.06,-53
2407.10,-163
2406.13,-251
2405.17,-256
2404.20,-183
2403.24,-88
2402.28,-12
2401.31,11
2400.35,-31
2399.38,-76
2398.42,-77
2397.45,-52
2396.49,-42
2395.53,-70
2394.56,-118
2393.60,-144
2392.63,-152
2391.67,-180
2390.71,-192
2389.74,-134
2388.78,-44
2387.81,8
2386.85,4
2385.88,-39
2384.92,-88
2383.96,-123
2382.99,-154
2382.03,-190
2381.06,-180
2380.10,-83
2379.13,51
2378.17,157
2377.21,201
2376.24,193
2375.28,155
2374.31,60
2373.35,-84
2372.38,-168
2371.42,-123
2370.46,-23
2369.49,11
2368.53,-17
2367.56,-6
2366.60,52
2365.64,68
2364.67,7
2363.71,-92
2362.74,-180
2361.78,-176
2360.81,-89
2359.85,-30
2358.89,-68
2357.92,-166
2356.96,-231
2355.99,-227
2355.03,-178
2354.06,-98
2353.10,-22
2352.14,-16
2351.17,-88
2350.21,-152
2349.24,-106
2348.28,1
2347.31,106
2346.35,156
2345.39,96
2344.42,-28
2343.46,-98
2342.49,-78
2341.53,-58
2340.57,-69
2339.60,-50
2338.64,21
2337.67,98
2336.71,108
2335.74,44
2334.78,-32
2333.82,-90
2332.85,-134
2331.89,-144
2330.92,-119
2329.96,-68
2328.99,17
2328.03,98
2327.07,126
2326.10,139
2325.14,170
2324.17,190
2323.21,183
2322.24,125
2321.28,45
2320.32,15
2319.35,44
2318.39,99
2317.42,152
2316.46,182
2315.49,182
2314.53,164
2313.57,151
2312.60,140
2311.64,101
2310.67,90
2309.71,134
2308.75,147
2307.78,114
2306.82,70
2305.85,19
2304.89,-16
2303.92,-0
2302.96,45
2302.00,48
2301.03,-11
2300.07,-65
2299.10,-60
2298.14,-27
2297.17,-4
2296.21,19
2295.25,20
2294.28,-28
2293.32,-53
2292.35,1
2291.39,77
2290.42,86
2289.46,13
2288.50,-93
2287.53,-145
2286.57,-106
2285.60,-51
2284.64,-16
2283.68,1
2282.71,-5
2281.75,19
2280.78,75
2279.82,112
2278.85,113
2277.89,76
2276.93,34
2275.96,44
2275.00,103
2274.03,138
2273.07,126
2272.10,107
2271.14,95
2270.18,102
2269.21,118
2268.25,102
2267.28,55
2266.32,11
2265.35,9
2264.39,54
2263.43,103
2262.46,130
2261.50,161
2260.53,220
2259.57,286
2258.61,268
2257.64,118
2256.68,-62
2255.71,-172
2254.75,-156
2253.78,-28
2252.82,98
2251.86,155
2250.89,152
2249.93,117
2248.96,160
2248.00,285
2247.03,266
2246.07,98
2245.11,17
2244.14,42
2243.18,77
2242.21,75
2241.25,45
2240.28,44
2239.32,82
2238.36,115
2237.39,128
2236.43,130
2235.46,97
2234.50,17
2233.54,-32
2232.57,0
2231.61,63
2230.64,117
2229.68,101
2228.71,16
2227.75,-20
2226.79,4
2225.82,15
2224.86,16
2223.89,45
2222.93,88
2221.96,106
2221.00,106
2220.04,110
2219.07,68
2218.11,-40
2217.14,-118
2216.18,-85
2215.21,45
2214.25,191
2213.29,240
2212.32,161
2211.36,45
2210.39,-11
2209.43,-10
2208.47,-3
2207.50,-16
2206.54,-41
2205.57,-53
2204.61,-12
2203.64,82
2202.68,167
2201.72,214
2200.75,237
2199.79,241
2198.82,225
2197.86,184
2196.89,110
2195.93,8
2194.97,-96
2194.00,-161
2193.04,-158
2192.07,-86
2191.11,17
2190.14,103
2189.18,151
2188.22,170
2187.25,160
2186.29,133
2185.32,120
2184.36,120
2183.40,94
2182.43,13
2181.47,-99
2180.50,-179
2179.54,-187
2178.57,-141
2177.61,-76
2176.65,-21
2175.68,-7
2174.72,-34
2173.75,-69
2172.79,-89
2171.82,-87
2170.86,-68
2169.90,-62
2168.93,-75
2167.97,-88
2167.00,-106
2166.04,-129
2165.07,-134
2164.11,-104
2163.15,-52
2162.18,-32
2161.22,-83
2160.25,-140
2159.29,-135
2158.32,-71
2157.36,10
2156.40,46
2155.43,0
2154.47,-84
2153.50,-121
2152.54,-90
2151.58,-38
2150.61,-13
2149.65,-20
2148.68,-32
2147.72,-25
2146.75,3
2145.79,31
2144.83,28
2143.86,-7
2142.90,-62
2141.93,-129
2140.97,-188
2140.00,-207
2139.04,-196
2138.08,-187
2137.11,-153
2136.15,-85
2135.18,-65
2134.22,-107
2133.25,-107
2132.29,-36
2131.33,34
2130.36,56
2129.40,23
2128.43,-22
2127.47,-33
2126.51,-19
2125.54,-16
2124.58,-12
2123.61,7
2122.65,5
2121.68,-9
2120.72,-6
2119.76,9
2118.79,42
2117.83,55
2116.86,19
2115.90,-25
2114.93,-47
2113.97,-57
2113.01,-53
2112.04,-14
2111.08,53
2110.11,110
2109.15,132
2108.18,120
2107.22,81
2106.26,36
2105.29,-2
2104.33,-11
2103.36,31
2102.40,90
2101.44,133
2100.47,142
2099.51,115
2098.54,63
2097.58,-7
2096.61,-84
2095.65,-151
2094.69,-196
2093.72,-214
2092.76,-166
2091.79,-55
2090.83,31
2089.86,49
2088.90,29
2087.94,5
2086.97,-26
2086.01,-58
2085.04,-62
2084.08,-43
2083.11,-25
2082.15,1
2081.19,29
2080.22,10
2079.26,-32
2078.29,-9
2077.33,70
2076.37,111
2075.40,76
2074.44,22
2073.47,9
2072.51,15
2071.54,-22
2070.58,-105
2069.62,-168
2068.65,-171
2067.69,-143
2066.72,-125
2065.76,-91
2064.79,-13
2063.83,53
2062.87,58
2061.90,17
2060.94,-41
2059.97,-88
2059.01,-115
2058.04,-120
2057.08,-107
2056.12,-101
2055.15,-131
2054.19,-174
2053.22,-169
2052.26,-127
2051.30,-112
2050.33,-141
2049.37,-166
2048.40,-111
2047.44,-4
2046.47,38
2045.51,-9
2044.55,-37
2043.58,10
2042.62,76
2041.65,118
2040.69,158
2039.72,179
2038.76,146
2037.80,89
2036.83,28
2035.87,-55
2034.90,-100
2033.94,-78
2032.97,-30
2032.01,14
2031.05,34
2030.08,14
2029.12,-31
2028.15,-79
2027.19,-100
2026.23,-70
2025.26,-29
2024.30,-15
2023.33,-5
2022.37,1
2021.40,-1
2020.44,-5
2019.48,-31
2018.51,-85
2017.55,-127
2016.58,-134
2015.62,-131
2014.65,-142
2013.69,-134
2012.73,-76
2011.76,31
2010.80,147
2009.83,205
2008.87,211
2007.90,224
2006.94,214
2005.98,121
2005.01,-13
2004.05,-125
2003.08,-177
2002.12,-165
2001.15,-118
2000.19,-69
1999.23,-41
1998.26,-57
1997.30,-112
1996.33,-159
1995.37,-173
1994.41,-160
1993.44,-146
1992.48,-143
1991.51,-123
1990.55,-93
1989.58,-86
1988.62,-94
1987.66,-81
1986.69,-46
1985.73,-29
1984.76,-30
1983.80,-10
1982.83,54
1981.87,148
1980.91,185
1979.94,105
1978.98,-56
1978.01,-193
1977.05,-219
1976.08,-141
1975.12,-53
1974.16,-35
1973.19,-77
1972.23,-111
1971.26,-83
1970.30,1
1969.34,84
1968.37,116
1967.41,112
1966.44,90
1965.48,43
1964.51,10
1963.55,35
1962.59,82
1961.62,101
1960.66,58
1959.69,-48
1958.73,-157
1957.76,-195
1956.80,-154
1955.84,-68
1954.87,36
1953.91,107
1952.94,119
1951.98,112
1951.01,102
1950.05,87
1949.09,77
1948.12,68
1947.16,57
1946.19,44
1945.23,24
1944.27,0
1943.30,7
1942.34,69
1941.37,159
1940.41,231
1939.44,257
1938.48,211
1937.52,99
1936.55,-2
1935.59,-14
1934.62,34
1933.66,73
1932.69,89
1931.73,118
1930.77,150
1929.80,146
1928.84,120
1927.87,100
1926.91,58
1925.94,14
1924.98,49
1924.02,121
1923.05,142
1922.09,134
1921.12,141
1920.16,160
1919.20,188
1918.23,231
1917.27,286
1916.30,321
1915.34,293
1914.37,210
1913.41,118
1912.45,38
1911.48,-16
1910.52,-15
1909.55,17
1908.59,35
1907.62,38
1906.66,9
1905.70,-59
1904.73,-107
1903.77,-101
1902.80,-60
1901.84,-7
1900.87,34
1899.91,25
1898.95,-26
1897.98,-38
1897.02,33
1896.05,136
1895.09,166
1894.13,109
1893.16,64
1892.20,55
1891.23,31
1890.27,-25
1889.30,-70
1888.34,-65
1887.38,-9
1886.41,62
1885.45,121
1884.48,149
1883.52,106
1882.55,0
1881.59,-79
1880.63,-80
1879.66,-48
1878.70,-19
1877.73,-2
1876.77,-28
1875.80,-90
1874.84,-111
1873.88,-36
1872.91,90
1871.95,159
1870.98,109
1870.02,-13
1869.06,-89
1868.09,-59
1867.13,8
1866.16,43
1865.20,23
1864.23,-43
1863.27,-107
1862.31,-134
1861.34,-146
1860.38,-174
1859.41,-208
1858.45,-209
1857.48,-169
1856.52,-120
1855.56,-87
1854.59,-56
1853.63,-12
1852.66,35
1851.70,49
1850.73,-17
1849.77,-129
1848.81,-190
1847.84,-163
1846.88,-88
1845.91,-32
1844.95,-20
1843.98,-8
1843.02,24
1842.06,68
1841.09,97
1840.13,38
1839.16,-98
1838.20,-199
1837.24,-209
1836.27,-151
1835.31,-77
1834.34,-46
1833.38,-68
1832.41,-101
1831.45,-130
1830.49,-155
1829.52,-158
1828.56,-135
1827.59,-115
1826.63,-84
1825.66,-9
1824.70,88
1823.74,143
1822.77,139
1821.81,122
1820.84,83
1819.88,20
1818.91,4
1817.95,31
1816.99,39
1816.02,10
1815.06,-24
1814.09,-37
1813.13,-41
1812.17,-37
1811.20,1
1810.24,66
1809.27,90
1808.31,54
1807.34,33
1806.38,52
1805.42,49
1804.45,-2
1803.49,-66
1802.52,-108
1801.56,-122
1800.59,-138
1799.63,-162
1798.67,-158
1797.70,-106
1796.74,-34
1795.77,0
1794.81,-27
1793.84,-60
1792.88,-54
1791.92,-50
1790.95,-76
1789.99,-111
1789.02,-152
1788.06,-209
1787.10,-271
1786.13,-307
1785.17,-283
1784.20,-187
1783.24,-62
1782.27,-5
1781.31,-40
1780.35,-49
1779.38,-20
1778.42,-44
1777.45,-72
1776.49,-63
1775.52,-72
1774.56,-122
1773.60,-188
1772.63,-252
1771.67,-289
1770.70,-271
1769.74,-199
1768.77,-122
1767.81,-84
1766.85,-94
1765.88,-136
1764.92,-186
1763.95,-204
1762.99,-166
1762.03,-106
1761.06,-56
1760.10,-18
1759.13,-34
1758.17,-132
1757.20,-264
1756.24,-336
1755.28,-316
1754.31,-245
1753.35,-163
1752.38,-95
1751.42,-86
1750.45,-140
1749.49,-188
1748.53,-168
1747.56,-87
1746.60,-3
1745.63,9
1744.67,-41
1743.70,-69
1742.74,-42
1741.78,3
1740.81,39
1739.85,51
1738.88,35
1737.92,-4
1736.96,-56
1735.99,-88
1735.03,-72
1734.06,-17
1733.10,50
1732.13,105
1731.17,121
1730.21,121
1729.24,159
1728.28,223
1727.31,260
1726.35,232
1725.38,139
1724.42,11
1723.46,-78
1722.49,-96
1721.53,-78
1720.56,-24
1719.60,76
1718.63,159
1717.67,195
1716.71,214
1715.74,214
1714.78,169
1713.81,117
1712.85,106
1711.89,122
1710.92,124
1709.96,101
1708.99,76
1708.03,61
1707.06,42
1706.10,3
1705.14,-30
1704.17,3
1703.21,64
1702.24,78
1701.28,63
1700.31,66
1699.35,85
1698.39,95
1697.42,82
1696.46,32
1695.49,-56
1694.53,-136
1693.56,-150
1692.60,-118
1691.64,-76
1690.67,-19
1689.71,13
1688.74,-7
1687.78,-39
1686.81,-47
1685.85,-48
1684.89,-67
1683.92,-107
1682.96,-156
1681.99,-193
1681.03,-198
1680.07,-175
1679.10,-145
1678.14,-107
1677.17,-52
1676.21,-14
1675.24,25
1674.28,113
1673.32,168
1672.35,150
1671.39,96
1670.42,9
1669.46,-120
1668.49,-224
1667.53,-218
1666.57,-100
1665.60,43
1664.64,127
1663.67,113
1662.71,3
1661.74,-122
1660.78,-145
1659.82,-81
1658.85,-0
1657.89,26
1656.92,-32
1655.96,-108
1655.00,-148
1654.03,-147
1653.07,-117
1652.10,-75
1651.14,-46
1650.17,-28
1649.21,3
1648.25,44
1647.28,59
1646.32,34
1645.35,-1
1644.39,-16
1643.42,-26
1642.46,-48
1641.50,-73
1640.53,-75
1639.57,-34
1638.60,13
1637.64,14
1636.67,-21
1635.71,-38
1634.75,-25
1633.78,-16
1632.82,-20
1631.85,-17
1630.89,-37
1629.93,-99
1628.96,-138
1628.00,-169
1627.03,-212
1626.07,-215
1625.10,-169
1624.14,-100
1623.18,-31
1622.21,8
1621.25,4
1620.28,-24
1619.32,-58
1618.35,-97
1617.39,-124
1616.43,-105
1615.46,-63
1614.50,-16
1613.53,46
1612.57,52
1611.60,16
1610.64,1
1609.68,-3
1608.71,-0
1607.75,39
1606.78,131
1605.82,246
1604.86,343
1603.89,407
1602.93,448
1601.96,457
1601.00,402
1600.03,324
1599.07,282
1598.11,296
1597.14,375
1596.18,529
1595.21,709
1594.25,852
1593.28,924
1592.32,952
1591.36,1001
1590.39,1128
1589.43,1324
1588.46,1551
1587.50,1825
1586.53,2226
1585.57,2711
1584.61,3241
1583.64,3820
1582.68,4524
1581.71,5357
1580.75,6305
1579.79,7401
1578.82,8615
1577.86,9836
1576.89,10934
1575.93,11763
1574.96,12266
1574.00,12490
1573.04,12478
1572.07,12289
1571.11,11907
1570.14,11329
1569.18,10552
1568.21,9512
1567.25,8398
1566.29,7278
1565.32,6210
1564.36,5263
1563.39,4451
1562.43,3784
1561.46,3212
1560.50,2691
1559.54,2244
1558.57,1904
1557.61,1640
1556.64,1429
1555.68,1225
1554.72,1026
1553.75,860
1552.79,743
1551.82,654
1550.86,584
1549.89,545
1548.93,517
1547.97,475
1547.00,398
1546.04,279
1545.07,146
1544.11,49
1543.14,25
1542.18,55
1541.22,71
1540.25,24
1539.29,-64
1538.32,-134
1537.36,-145
1536.39,-113
1535.43,-105
1534.47,-122
1533.50,-60
1532.54,82
1531.57,170
1530.61,154
1529.64,64
1528.68,-42
1527.72,-116
1526.75,-126
1525.79,-69
1524.82,6
1523.86,22
1522.90,-39
1521.93,-111
1520.97,-169
1520.00,-200
1519.04,-164
1518.07,-86
1517.11,-21
1516.15,0
1515.18,-30
1514.22,-84
1513.25,-118
1512.29,-102
1511.32,-66
1510.36,-72
1509.40,-140
1508.43,-189
1507.47,-149
1506.50,-80
1505.54,-32
1504.57,-29
1503.61,-70
1502.65,-110
1501.68,-107
1500.72,-82
1499.75,-103
1498.79,-190
1497.83,-277
1496.86,-267
1495.90,-131
1494.93,18
1493.97,39
1493.00,-64
1492.04,-187
1491.08,-242
1490.11,-207
1489.15,-131
1488.18,-87
1487.22,-103
1486.25,-127
1485.29,-102
1484.33,-71
1483.36,-84
1482.40,-112
1481.43,-120
1480.47,-101
1479.50,-50
1478.54,15
1477.58,61
1476.61,74
1475.65,62
1474.68,25
1473.72,-34
1472.76,-98
1471.79,-167
1470.83,-219
1469.86,-208
1468.90,-136
1467.93,-60
1466.97,-23
1466.01,-26
1465.04,-53
1464.08,-84
1463.11,-91
1462.15,-70
1461.18,-82
1460.22,-162
1459.26,-189
1458.29,-118
1457.33,16
1456.36,157
1455.40,229
1454.43,185
1453.47,52
1452.51,-87
1451.54,-155
1450.58,-132
1449.61,-47
1448.65,40
1447.69,38
1446.72,-64
1445.76,-162
1444.79,-176
1443.83,-132
1442.86,-66
1441.90,18
1440.94,85
1439.97,53
1439.01,-81
1438.04,-202
1437.08,-228
1436.11,-182
1435.15,-101
1434.19,-16
1433.22,50
1432.26,76
1431.29,46
1430.33,-25
1429.36,-83
1428.40,-76
1427.44,-24
1426.47,65
1425.51,169
1424.54,178
1423.58,85
1422.62,-18
1421.65,-50
1420.69,-2
1419.72,76
1418.76,121
1417.79,110
1416.83,67
1415.87,38
1414.90,31
1413.94,20
1412.97,44
1412.01,104
1411.04,147
1410.08,143
1409.12,90
1408.15,9
1407.19,-47
1406.22,-24
1405.26,44
1404.29,62
1403.33,20
1402.37,-22
1401.40,-54
1400.44,-58
1399.47,-1
1398.51,97
1397.55,159
1396.58,138
1395.62,76
1394.65,40
1393.69,54
1392.72,122
1391.76,166
1390.80,124
1389.83,39
1388.87,-15
1387.90,-19
1386.94,-16
1385.97,-58
1385.01,-146
1384.05,-217
1383.08,-191
1382.12,-62
1381.15,74
1380.19,108
1379.22,39
1378.26,-48
1377.30,-84
1376.33,-74
1375.37,-56
1374.40,-54
1373.44,-54
1372.47,-43
1371.51,-8
1370.55,46
1369.58,59
1368.62,0
1367.65,-68
1366.69,-79
1365.73,-42
1364.76,-11
1363.80,-2
1362.83,8
1361.87,37
1360.90,108
1359.94,186
1358.98,198
1358.01,135
1357.05,61
1356.08,24
1355.12,8
1354.15,-14
1353.19,-15
1352.23,26
1351.26,22
1350.30,-4
1349.33,-1
1348.37,-10
1347.40,-30
1346.44,-24
1345.48,8
1344.51,27
1343.55,25
1342.58,18
1341.62,11
1340.66,10
1339.69,22
1338.73,32
1337.76,14
1336.80,-39
1335.83,-107
1334.87,-160
1333.91,-186
1332.94,-192
1331.98,-151
1331.01,-66
1330.05,-10
1329.08,19
1328.12,40
1327.16,59
1326.19,62
1325.23,43
1324.26,17
1323.30,7
1322.33,18
1321.37,28
1320.41,4
1319.44,-57
1318.48,-108
1317.51,-136
1316.55,-152
1315.59,-145
1314.62,-88
1313.66,-7
1312.69,29
1311.73,-20
1310.76,-121
1309.80,-206
1308.84,-233
1307.87,-214
1306.91,-179
1305.94,-126
1304.98,-34
1304.01,77
1303.05,130
1302.09,80
1301.12,-11
1300.16,-41
1299.19,11
1298.23,82
1297.26,117
1296.30,108
1295.34,86
1294.37,82
1293.41,85
1292.44,50
1291.48,-21
1290.52,-75
1289.55,-93
1288.59,-80
1287.62,-30
1286.66,60
1285.69,142
1284.73,127
1283.77,-23
1282.80,-209
1281.84,-299
1280.87,-253
1279.91,-128
1278.94,-10
1277.98,62
1277.02,88
1276.05,80
1275.09,42
1274.12,-5
1273.16,-13
1272.19,34
1271.23,93
1270.27,115
1269.30,86
1268.34,46
1267.37,39
1266.41,59
1265.45,48
1264.48,61
1263.52,157
1262.55,233
1261.59,239
1260.62,200
1259.66,165
1258.70,164
1257.73,203
1256.77,266
1255.80,319
1254.84,300
1253.87,212
1252.91,89
1251.95,-33
1250.98,-119
1250.02,-164
1249.05,-174
1248.09,-156
1247.12,-110
1246.16,-67
1245.20,-43
1244.23,-30
1243.27,-17
1242.30,-2
1241.34,0
1240.38,-17
1239.41,-41
1238.45,-53
1237.48,-40
1236.52,26
1235.55,55
1234.59,8
1233.63,-43
1232.66,-81
1231.70,-130
1230.73,-205
1229.77,-281
1228.80,-321
1227.84,-313
1226.88,-270
1225.91,-220
1224.95,-172
1223.98,-144
1223.02,-146
1222.05,-165
1221.09,-175
1220.13,-153
1219.16,-89
1218.20,-63
1217.23,-133
1216.27,-228
1215.30,-291
1214.34,-317
1213.38,-336
1212.41,-380
1211.45,-452
1210.48,-511
1209.52,-488
1208.56,-388
1207.59,-291
1206.63,-234
1205.66,-199
1204.70,-152
1203.73,-79
1202.77,-1
1201.81,54
1200.84,85
1199.88,60
1198.91,-33
1197.95,-124
1196.98,-153
1196.02,-121
1195.06,-68
1194.09,-28
1193.13,-1
1192.16,18
1191.20,49
1190.23,140
1189.27,330
1188.31,588
1187.34,894
1186.38,1257
1185.41,1653
1184.45,1924
1183.49,2129
1182.52,2197
1181.56,2145
1180.59,2017
1179.63,1844
1178.66,1654
1177.70,1467
1176.74,1276
1175.77,1046
1174.81,811
1173.84,589
1172.88,408
1171.91,281
1170.95,190
1169.99,115
1169.02,48
1168.06,-7
1167.09,-32
1166.13,0
1165.16,64
1164.20,117
1163.24,134
1162.27,127
1161.31,130
1160.34,160
1159.38,197
1158.42,209
1157.45,213
1156.49,236
1155.52,281
1154.56,315
1153.59,303
1152.63,249
1151.67,179
1150.70,101
1149.74,46
1148.77,60
1147.81,116
1146.84,189
1145.88,261
1144.92,315
1143.95,343
1142.99,355
1142.02,381
1141.06,425
1140.09,450
1139.13,428
1138.17,371
1137.20,312
1136.24,285
1135.27,312
1134.31,383
1133.35,430
1132.38,425
1131.42,431
1130.45,482
1129.49,566
1128.52,644
1127.56,682
1126.60,680
1125.63,676
1124.67,710
1123.70,777
1122.74,853
1121.77,919
1120.81,970
1119.85,1016
1118.88,1073
1117.92,1144
1116.95,1173
1115.99,1152
1115.02,1156
1114.06,1205
1113.10,1264
1112.13,1292
1111.17,1283
1110.20,1273
1109.24,1314
1108.28,1409
1107.31,1509
1106.35,1594
1105.38,1656
1104.42,1671
1103.45,1629
1102.49,1559
1101.53,1529
1100.56,1571
1099.60,1692
1098.63,1865
1097.67,2024
1096.70,2120
1095.74,2139
1094.78,2096
1093.81,2025
1092.85,1997
1091.88,2093
1090.92,2287
1089.95,2522
1088.99,2799
1088.03,3135
1087.06,3583
1086.10,4230
1085.13,5035
1084.17,6140
1083.21,7480
1082.24,9096
1081.28,10986
1080.31,12971
1079.35,14845
1078.38,16488
1077.42,17670
1076.46,17964
1075.49,17631
1074.53,16627
1073.56,15039
1072.60,13216
1071.63,11347
1070.67,9428
1069.71,7821
1068.74,6414
1067.78,5357
1066.81,4562
1065.85,3912
1064.88,3348
1063.92,2847
1062.96,2406
1061.99,2042
1061.03,1747
1060.06,1533
1059.10,1409
1058.13,1319
1057.17,1252
1056.21,1198
1055.24,1122
1054.28,991
1053.31,866
1052.35,816
1051.39,781
1050.42,731
1049.46,667
1048.49,601
1047.53,536
1046.56,475
1045.60,438
1044.64,426
1043.67,417
1042.71,400
1041.74,382
1040.78,379
1039.81,397
1038.85,420
1037.89,414
1036.92,373
1035.96,321
1034.99,262
1034.03,183
1033.06,88
1032.10,15
1031.14,0
1030.17,40
1029.21,94
1028.24,155
1027.28,201
1026.32,209
1025.35,177
1024.39,133
1023.42,113
1022.46,123
1021.49,152
1020.53,217
1019.57,279
1018.60,298
1017.64,268
1016.67,238
1015.71,253
1014.74,310
1013.78,339
1012.82,312
1011.85,237
1010.89,142
1009.92,63
1008.96,27
1007.99,44
1007.03,74
1006.07,68
1005.10,29
1004.14,-7
1003.17,-15
1002.21,6
1001.25,39
1000.28,56
999.32,50
998.35,43
997.39,24
996.42,0
995.46,-1
994.50,26
993.53,46
992.57,7
991.60,-55
990.64,-92
989.67,-91
988.71,-68
987.75,-52
986.78,-65
985.82,-96
984.85,-118
983.89,-138
982.92,-165
981.96,-197
981.00,-231
980.03,-268
979.07,-305
978.10,-322
977.14,-318
976.18,-313
975.21,-317
974.25,-328
973.28,-340
972.32,-345
971.35,-317
970.39,-219
969.43,-90
968.46,0
967.50,1
966.53,-72
965.57,-147
964.60,-160
963.64,-133
962.68,-77
961.71,18
960.75,104
959.78,129
958.82,77
957.85,-18
956.89,-92
955.93,-99
954.96,-90
954.00,-85
953.03,-70
952.07,-29
951.11,44
950.14,140
949.18,170
948.21,137
947.25,118
946.28,123
945.32,119
944.36,71
943.39,-25
942.43,-122
941.46,-148
940.50,-106
939.53,-29
938.57,49
937.61,103
936.64,114
935.68,75
934.71,-1
933.75,-54
932.78,-36
931.82,30
930.86,90
929.89,101
928.93,71
927.96,35
927.00,15
926.04,4
925.07,1
924.11,7
923.14,23
922.18,47
921.21,73
920.25,100
919.29,109
918.32,84
917.36,35
916.39,-10
915.43,-28
914.46,-6
913.50,53
912.54,88
911.57,91
910.61,74
909.64,50
908.68,20
907.71,-11
906.75,-52
905.79,-124
904.82,-205
903.86,-239
902.89,-191
901.93,-81
900.96,6
900.00,12
899.04,-9
898.07,-56
897.11,-139
896.14,-227
895.18,-270
894.22,-240
893.25,-164
892.29,-83
891.32,-12
890.36,48
889.39,87
888.43,90
887.47,52
886.50,0
885.54,-29
884.57,-27
883.61,1
882.64,42
881.68,72
880.72,53
879.75,-50
878.79,-152
877.82,-209
876.86,-218
875.89,-188
874.93,-138
873.97,-108
873.00,-125
872.04,-142
871.07,-104
870.11,-29
869.15,31
868.18,38
867.22,-6
866.25,-72
865.29,-121
864.32,-101
863.36,-22
862.40,63
861.43,103
860.47,79
859.50,-4
858.54,-119
857.57,-212
856.61,-265
855.65,-277
854.68,-256
853.72,-210
852.75,-172
851.79,-171
850.82,-165
849.86,-127
848.90,-64
847.93,1
846.97,54
846.00,86
845.04,73
844.08,28
843.11,-8
842.15,-11
841.18,20
840.22,67
839.25,136
838.29,233
837.33,331
836.36,390
835.40,396
834.43,371
833.47,363
832.50,343
831.54,312
830.58,331
829.61,359
828.65,341
827.68,270
826.72,223
825.75,201
824.79,174
823.83,154
822.86,160
821.90,189
820.93,214
819.97,189
819.01,111
818.04,38
817.08,4
816.11,11
815.15,45
814.18,83
813.22,121
812.26,137
811.29,115
810.33,77
809.36,44
808.40,24
807.43,13
806.47,20
805.51,22
804.54,3
803.58,-19
802.61,-24
801.65,8
800.68,72
799.72,127
798.76,154
797.79,151
796.83,109
795.86,34
794.90,-44
793.94,-59
792.97,-21
792.01,2
791.04,1
790.08,-26
789.11,-69
788.15,-105
787.19,-89
786.22,-38
785.26,20
784.29,64
783.33,81
782.36,81
781.40,105
780.44,174
779.47,179
778.51,113
777.54,36
776.58,0
775.61,20
774.65,45
773.69,21
772.72,-46
771.76,-105
770.79,-106
769.83,-33
768.87,74
767.90,146
766.94,183
765.97,199
765.01,211
764.04,231
763.08,256
762.12,245
761.15,185
760.19,152
759.22,158
758.26,177
757.29,173
756.33,133
755.37,78
754.40,73
753.44,126
752.47,213
751.51,311
750.54,414
749.58,559
748.62,806
747.65,1112
746.69,1426
745.72,1708
744.76,1922
743.79,2030
742.83,2031
741.87,1902
740.90,1727
739.94,1549
738.97,1357
738.01,1113
737.05,901
736.08,701
735.12,539
734.15,436
733.19,374
732.22,315
731.26,229
730.30,143
729.33,122
728.37,174
727.40,251
726.44,300
725.47,286
724.51,224
723.55,155
722.58,101
721.62,74
720.65,72
719.69,83
718.72,86
717.76,96
716.80,129
715.83,178
714.87,224
713.90,248
712.94,238
711.98,217
711.01,233
710.05,306
709.08,431
708.12,577
707.15,698
706.19,760
705.23,722
704.26,627
703.30,518
702.33,411
701.37,310
700.40,233
699.44,159
698.48,91
697.51,50
696.55,41
695.58,58
694.62,85
693.65,117
692.69,149
691.73,158
690.76,134
689.80,58
688.83,-75
687.87,-71
686.91,554
685.94,1305
684.98,1720
684.01,1755
683.05,1651
682.08,1295
681.12,485
680.16,-73
679.19,-189
678.23,6
677.26,229
676.30,297
675.33,296
674.37,262
673.41,189
672.44,113
671.48,74
670.51,78
669.55,55
668.58,18
667.62,-4
666.66,-11
665.69,-3
664.73,29
663.76,94
662.80,140
661.84,156
660.87,156
659.91,150
658.94,132
657.98,81
657.01,13
656.05,-34
655.09,-51
654.12,-40
653.16,-13
652.19,22
651.23,57
650.26,63
649.30,32
648.34,-16
647.37,-48
646.41,-49
645.44,-17
644.48,37
643.51,88
642.55,115
641.59,100
640.62,45
639.66,-28
638.69,-60
637.73,-19
636.77,101
635.80,285
634.84,498
633.87,756
632.91,1021
631.94,1188
630.98,1255
630.02,1247
629.05,1136
628.09,956
627.12,791
626.16,614
625.19,428
624.23,254
623.27,108
622.30,-14
621.34,-100
620.37,-142
619.41,-152
618.44,-143
617.48,-118
616.52,-84
615.55,-41
614.59,12
613.62,62
612.66,84
611.70,49
610.73,0
609.77,-20
608.80,-17
607.84,2
606.87,33
605.91,64
604.95,98
603.98,121
603.02,125
602.05,112
601.09,89
600.12,69
599.16,57
598.20,52
597.23,49
596.27,44
595.30,33
594.34,20
593.37,33
592.41,75
591.45,126
590.48,162
589.52,160
588.55,109
587.59,43
586.62,5
585.66,-12
584.70,-19
583.73,-21
582.77,3
581.80,64
580.84,103
579.88,106
578.91,85
577.95,69
576.98,85
576.02,158
575.05,247
574.09,312
573.13,335
572.16,315
571.20,272
570.23,216
569.27,165
568.30,134
567.34,135
566.38,176
565.41,242
564.45,286
563.48,312
562.52,329
561.55,329
560.59,285
559.63,183
558.66,93
557.70,57
556.73,81
555.77,149
554.81,226
553.84,258
552.88,266
551.91,276
550.95,293
549.98,317
549.02,341
548.06,349
547.09,322
546.13,263
545.16,195
544.20,150
543.23,149
542.27,159
541.31,162
540.34,150
539.38,116
538.41,51
537.45,-38
536.48,-104
535.52,-135
534.56,-137
533.59,-111
532.63,-56
531.66,18
530.70,62
529.74,70
528.77,56
527.81,44
526.84,44
525.88,38
524.91,29
523.95,20
522.99,2
522.02,-27
521.06,-43
520.09,-29
519.13,-23
518.16,-30
517.20,-53
516.24,-92
515.27,-153
514.31,-184
513.34,-160
512.38,-96
511.41,-33
510.45,-25
509.49,-84
508.52,-129
507.56,-127
506.59,-75
505.63,4
504.67,51
503.70,37
502.74,19
501.77,11
500.81,14
499.84,19
498.88,15
497.92,-4
496.95,-23
495.99,-32
495.02,-29
494.06,-17
493.09,0
492.13,18
491.17,33
490.20,44
489.24,56
488.27,90
487.31,135
486.34,167
485.38,188
484.42,198
483.45,190
482.49,164
481.52,162
480.56,163
479.60,154
478.63,132
477.67,127
476.70,137
475.74,129
474.77,104
473.81,78
472.85,79
471.88,139
470.92,240
469.95,361
468.99,486
468.02,594
467.06,655
466.10,681
465.13,666
464.17,625
463.20,570
462.24,512
461.27,425
460.31,329
459.35,237
458.38,166
457.42,124
456.45,118
455.49,148
454.53,175
453.56,174
452.60,141
451.63,91
450.67,63
449.70,40
448.74,33
447.78,55
446.81,100
445.85,137
444.88,143
443.92,150
442.95,153
441.99,148
441.03,130
440.06,95
439.10,44
438.13,0
437.17,-14
436.20,6
435.24,48
434.28,55
433.31,26
432.35,-16
431.38,-48
430.42,-50
429.45,2
428.49,81
427.53,125
426.56,117
425.60,67
424.63,8
423.67,-7
422.71,7
421.74,38
420.78,76
419.81,116
418.85,148
417.88,159
416.92,154
415.96,138
414.99,114
414.03,83
413.06,53
412.10,36
411.13,34
410.17,50
409.21,82
408.24,117
407.28,121
406.31,107
405.35,92
404.38,90
403.42,114
402.46,138
401.49,137
400.53,112
399.56,65
398.60,7
397.64,-65
396.67,-120
395.71,-134
394.74,-106
393.78,-53
392.81,-3
391.85,21
390.89,-0
389.92,-64
388.96,-141
387.99,-176
387.03,-149
386.06,-98
385.10,-46
384.14,-12
383.17,-9
382.21,-34
381.24,-62
380.28,-96
379.31,-136
378.35,-177
377.39,-208
376.42,-203
375.46,-163
374.49,-111
373.53,-77
372.57,-80
371.60,-112
370.64,-150
369.67,-174
368.71,-177
367.74,-169
366.78,-172
365.82,-175
364.85,-160
363.89,-122
362.92,-68
361.96,-37
360.99,-56
360.03,-103
359.07,-148
358.10,-156
357.14,-102
356.17,-4
355.21,106
354.24,193
353.28,219
352.32,150
351.35,39
350.39,-48
349.42,-103
348.46,-121
347.50,-99
346.53,-37
345.57,13
344.60,49
343.64,73
342.67,90
341.71,85
340.75,54
339.78,19
338.82,-3
337.85,-6
336.89,4
335.92,4
334.96,0
334.00,-8
333.03,-10
332.07,-9
331.10,-23
330.14,-35
329.17,-30
328.21,1
327.25,56
326.28,111
325.32,146
324.35,168
323.39,190
322.43,229
321.46,285
320.50,321
319.53,326
318.57,307
317.60,278
316.64,265
315.68,264
314.71,274
313.75,293
312.78,317
311.82,335
310.85,339
309.89,322
308.93,273
307.96,185
307.00,57
306.03,-67
305.07,-140
304.10,-142
303.14,-81
302.18,5
301.21,44
300.25,42
299.28,6
298.32,-54
297.36,-125
296.39,-146
295.43,-108
294.46,-44
293.50,10
292.53,22
291.57,0
290.61,-36
289.64,-71
288.68,-93
287.71,-94
286.75,-67
285.78,-29
284.82,10
283.86,42
282.89,60
281.93,53
280.96,43
280.00,45
279.03,54
278.07,52
277.11,19
276.14,-11
275.18,-27
274.21,-27
273.25,-12
272.28,18
271.32,42
270.36,64
269.39,85
268.43,104
267.46,117
266.50,125
265.54,120
264.57,100
263.61,67
262.64,31
261.68,16
260.71,26
259.75,57
258.79,98
257.82,125
256.86,119
255.89,103
254.93,83
253.96,64
253.00,58
252.04,84
251.07,111
250.11,128
249.14,137
248.18,143
247.21,137
246.25,113
245.29,77
244.32,37
243.36,8
242.39,-16
241.43,-43
240.47,-66
239.50,-75
238.54,-52
237.57,-22
236.61,-14
235.64,-13
234.68,-4
233.72,17
232.75,42
231.79,48
230.82,34
229.86,3
228.89,-32
227.93,-41
226.97,-30
226.00,-11
225.04,10
224.07,37
223.11,82
222.14,132
221.18,182
220.22,228
219.25,269
218.29,305
217.32,346
216.36,380
215.40,386
214.43,338
213.47,243
212.50,157
211.54,112
210.57,130
209.61,200
208.65,235
207.68,197
206.72,95
205.75,-42
204.79,-140
203.82,-161
202.86,-142
201.90,-109
200.93,-84
199.97,-74
199.00,-74
198.04,-84
197.07,-96
196.11,-100
195.15,-74
194.18,-49
193.22,-34
192.25,-26
191.29,-19
190.33,-17
189.36,-31
188.40,-56
187.43,-84
186.47,-104
185.50,-94
184.54,-67
183.58,-47
182.61,-47
181.65,-74
180.68,-117
179.72,-153
178.75,-167
177.79,-148
176.83,-84
175.86,-1
174.90,55
173.93,87
172.97,104
172.00,122
171.04,128
170.08,105
169.11,56
168.15,-8
167.18,-69
166.22,-96
165.26,-92
164.29,-62
163.33,-18
162.36,19
161.40,38
160.43,51
159.47,70
158.51,101
157.54,132
156.58,147
155.61,147
154.65,134
153.68,111
152.72,90
151.76,64
150.79,36
149.83,18
148.86,34
147.90,102
146.93,166
145.97,205
145.01,213
144.04,208
143.08,237
142.11,290
141.15,353
140.19,415
139.22,490
138.26,619
137.29,772
136.33,922
135.36,1043
134.40,1110
133.44,1135
132.47,1167
131.51,1224
130.54,1314
129.58,1436
128.61,1547
127.65,1615
126.69,1619
125.72,1548
124.76,1415
123.79,1268
122.83,1123
121.86,995
120.90,895
119.94,830
118.97,764
118.01,683
117.04,576
116.08,427
115.11,292
114.15,184
113.19,103
112.22,45
111.26,13
110.29,1
109.33,5
108.37,0
107.40,21
106.44,28
105.47,20
104.51,3
103.54,-17
102.58,-32
101.62,-46
100.65,-57
99.69,-59
98.72,-50
97.76,-44
96.79,-73
95.83,-111
94.87,-140
93.90,-146
92.94,-127
91.97,-96
91.01,-57
90.04,-19
89.08,8
88.12,0
87.15,-35
86.19,-86
85.22,-141
84.26,-181
83.30,-187
82.33,-173
81.37,-154
80.40,-147
79.44,-151
78.47,-138
77.51,-105
76.55,0
