Created As Omnic File,PLAS 104
Raman Shift / cm-1,INT
3418.58,0
3417.61,-1
3416.65,-1
3415.68,-0
3414.72,-1
3413.76,-3
3412.79,-5
3411.83,-6
3410.86,-5
3409.90,-4
3408.94,-3
3407.97,-3
3407.01,-5
3406.04,-4
3405.08,-2
3404.11,-1
3403.15,-1
3402.19,-2
3401.22,-4
3400.26,-5
3399.29,-5
3398.33,-4
3397.36,-3
3396.40,-1
3395.44,-1
3394.47,-2
3393.51,-2
3392.54,-2
3391.58,0
3390.61,3
3389.65,4
3388.69,3
3387.72,-0
3386.76,-2
3385.79,-0
3384.83,2
3383.87,3
3382.90,3
3381.94,4
3380.97,3
3380.01,-0
3379.04,-3
3378.08,-4
3377.12,0
3376.15,4
3375.19,5
3374.22,6
3373.26,7
3372.29,7
3371.33,3
3370.37,1
3369.40,1
3368.44,3
3367.47,4
3366.51,2
3365.54,-1
3364.58,-1
3363.62,1
3362.65,1
3361.69,-0
3360.72,1
3359.76,2
3358.80,2
3357.83,3
3356.87,4
3355.90,4
3354.94,3
3353.97,2
3353.01,2
3352.05,1
3351.08,0
3350.12,-0
3349.15,1
3348.19,3
3347.22,6
3346.26,5
3345.30,3
3344.33,3
3343.37,3
3342.40,4
3341.44,6
3340.47,6
3339.51,5
3338.55,2
3337.58,-0
3336.62,-0
3335.65,0
3334.69,-0
3333.73,0
3332.76,1
3331.80,1
3330.83,1
3329.87,0
3328.90,-1
3327.94,-2
3326.98,-2
3326.01,-1
3325.05,0
3324.08,-0
3323.12,-1
3322.15,-1
3321.19,-1
3320.23,-2
3319.26,-2
3318.30,-2
3317.33,-2
3316.37,-2
3315.40,-4
3314.44,-6
3313.48,-4
3312.51,-2
3311.55,-4
3310.58,-5
3309.62,-3
3308.66,-2
3307.69,-2
3306.73,-4
3305.76,-5
3304.80,-5
3303.83,-3
3302.87,-3
3301.91,-5
3300.94,-5
3299.98,-5
3299.01,-4
3298.05,-3
3297.08,-3
3296.12,-3
3295.16,-2
3294.19,-0
3293.23,1
3292.26,2
3291.30,2
3290.33,-0
3289.37,-3
3288.41,-4
3287.44,-5
3286.48,-6
3285.51,-7
3284.55,-5
3283.59,-1
3282.62,-1
3281.66,-2
3280.69,-4
3279.73,-4
3278.76,-1
3277.80,-0
3276.84,-2
3275.87,-3
3274.91,-2
3273.94,-2
3272.98,-4
3272.01,-4
3271.05,-3
3270.09,-3
3269.12,-5
3268.16,-5
3267.19,-3
3266.23,-3
3265.26,-2
3264.30,-1
3263.34,-1
3262.37,-3
3261.41,-3
3260.44,1
3259.48,3
3258.51,-1
3257.55,-3
3256.59,-2
3255.62,-1
3254.66,1
3253.69,-0
3252.73,-3
3251.77,-3
3250.80,-1
3249.84,-2
3248.87,-4
3247.91,-4
3246.94,-3
3245.98,-2
3245.02,-2
3244.05,-2
3243.09,-1
3242.12,0
3241.16,-1
3240.19,-4
3239.23,-4
3238.27,-2
3237.30,-1
3236.34,-1
3235.37,-3
3234.41,-5
3233.44,-3
3232.48,-0
3231.52,-1
3230.55,-4
3229.59,-3
3228.62,-2
3227.66,-5
3226.70,-8
3225.73,-8
3224.77,-7
3223.80,-7
3222.84,-7
3221.87,-6
3220.91,-6
3219.95,-8
3218.98,-8
3218.02,-7
3217.05,-5
3216.09,-4
3215.12,-2
3214.16,-1
3213.20,-1
3212.23,-2
3211.27,-2
3210.30,-3
3209.34,-4
3208.37,-4
3207.41,-2
3206.45,-1
3205.48,-1
3204.52,-1
3203.55,2
3202.59,5
3201.63,5
3200.66,4
3199.70,3
3198.73,1
3197.77,-0
3196.80,-1
3195.84,-0
3194.88,-0
3193.91,-2
3192.95,-1
3191.98,1
3191.02,-1
3190.05,-3
3189.09,-3
3188.13,-3
3187.16,-2
3186.20,-1
3185.23,1
3184.27,1
3183.30,1
3182.34,1
3181.38,2
3180.41,2
3179.45,1
3178.48,1
3177.52,3
3176.56,5
3175.59,6
3174.63,6
3173.66,4
3172.70,3
3171.73,2
3170.77,6
3169.81,10
3168.84,13
3167.88,15
3166.91,13
3165.95,12
3164.98,11
3164.02,11
3163.06,10
3162.09,10
3161.13,13
3160.16,16
3159.20,13
3158.23,9
3157.27,7
3156.31,6
3155.34,7
3154.38,8
3153.41,7
3152.45,4
3151.49,2
3150.52,3
3149.56,7
3148.59,7
3147.63,4
3146.66,3
3145.70,4
3144.74,4
3143.77,4
3142.81,4
3141.84,4
3140.88,4
3139.91,4
3138.95,5
3137.99,5
3137.02,3
3136.06,1
3135.09,3
3134.13,4
3133.16,5
3132.20,4
3131.24,2
3130.27,0
3129.31,-0
3128.34,1
3127.38,2
3126.42,1
3125.45,-1
3124.49,1
3123.52,4
3122.56,2
3121.59,-4
3120.63,-3
3119.67,1
3118.70,2
3117.74,2
3116.77,1
3115.81,1
3114.84,-0
3113.88,0
3112.92,2
3111.95,5
3110.99,4
3110.02,5
3109.06,8
3108.09,10
3107.13,9
3106.17,6
3105.20,3
3104.24,2
3103.27,4
3102.31,7
3101.34,9
3100.38,9
3099.42,7
3098.45,8
3097.49,10
3096.52,12
3095.56,13
3094.60,14
3093.63,14
3092.67,14
3091.70,15
3090.74,19
3089.77,24
3088.81,27
3087.85,28
3086.88,32
3085.92,36
3084.95,39
3083.99,43
3083.02,45
3082.06,47
3081.10,49
3080.13,53
3079.17,59
3078.20,67
3077.24,73
3076.27,83
3075.31,96
3074.35,107
3073.38,116
3072.42,127
3071.45,143
3070.49,159
3069.53,175
3068.56,195
3067.60,218
3066.63,239
3065.67,257
3064.70,276
3063.74,294
3062.78,307
3061.81,318
3060.85,327
3059.88,336
3058.92,340
3057.95,343
3056.99,347
3056.03,350
3055.06,350
3054.10,349
3053.13,349
3052.17,346
3051.20,332
3050.24,312
3049.28,288
3048.31,263
3047.35,240
3046.38,219
3045.42,202
3044.46,187
3043.49,175
3042.53,168
3041.56,169
3040.60,170
3039.63,169
3038.67,169
3037.71,168
3036.74,166
3035.78,161
3034.81,153
3033.85,144
3032.88,135
3031.92,126
3030.96,118
3029.99,110
3029.03,101
3028.06,91
3027.10,81
3026.13,73
3025.17,68
3024.21,63
3023.24,55
3022.28,46
3021.31,39
3020.35,32
3019.39,28
3018.42,28
3017.46,26
3016.49,23
3015.53,21
3014.56,19
3013.60,18
3012.64,19
3011.67,17
3010.71,17
3009.74,19
3008.78,21
3007.81,21
3006.85,22
3005.89,27
3004.92,31
3003.96,34
3002.99,35
3002.03,36
3001.06,35
3000.10,33
2999.14,29
2998.17,23
2997.21,18
2996.24,13
2995.28,10
2994.32,10
2993.35,10
2992.39,9
2991.42,7
2990.46,6
2989.49,8
2988.53,11
2987.57,12
2986.60,10
2985.64,8
2984.67,9
2983.71,14
2982.74,20
2981.78,24
2980.82,27
2979.85,31
2978.89,35
2977.92,35
2976.96,34
2975.99,35
2975.03,36
2974.07,33
2973.10,28
2972.14,25
2971.17,22
2970.21,19
2969.25,18
2968.28,19
2967.32,21
2966.35,23
2965.39,23
2964.42,25
2963.46,26
2962.50,25
2961.53,26
2960.57,29
2959.60,31
2958.64,31
2957.67,31
2956.71,31
2955.75,33
2954.78,35
2953.82,37
2952.85,38
2951.89,40
2950.92,43
2949.96,46
2949.00,48
2948.03,49
2947.07,49
2946.10,53
2945.14,60
2944.17,63
2943.21,64
2942.25,65
2941.28,68
2940.32,70
2939.35,73
2938.39,74
2937.43,74
2936.46,78
2935.50,84
2934.53,85
2933.57,84
2932.60,84
2931.64,84
2930.68,86
2929.71,90
2928.75,92
2927.78,93
2926.82,96
2925.85,100
2924.89,102
2923.93,104
2922.96,104
2922.00,106
2921.03,109
2920.07,114
2919.10,117
2918.14,119
2917.18,124
2916.21,127
2915.25,126
2914.28,121
2913.32,123
2912.36,128
2911.39,132
2910.43,134
2909.46,135
2908.50,137
2907.53,140
2906.57,143
2905.61,141
2904.64,137
2903.68,136
2902.71,137
2901.75,136
2900.78,133
2899.82,132
2898.86,132
2897.89,128
2896.93,125
2895.96,123
2895.00,120
2894.03,115
2893.07,109
2892.11,103
2891.14,97
2890.18,95
2889.21,93
2888.25,87
2887.29,83
2886.32,82
2885.36,82
2884.39,80
2883.43,75
2882.46,68
2881.50,63
2880.54,60
2879.57,60
2878.61,59
2877.64,56
2876.68,54
2875.71,53
2874.75,52
2873.79,51
2872.82,49
2871.86,45
2870.89,42
2869.93,41
2868.96,42
2868.00,44
2867.04,47
2866.07,50
2865.11,52
2864.14,52
2863.18,52
2862.22,53
2861.25,55
2860.29,58
2859.32,59
2858.36,62
2857.39,66
2856.43,68
2855.47,70
2854.50,70
2853.54,70
2852.57,68
2851.61,65
2850.64,61
2849.68,57
2848.72,55
2847.75,56
2846.79,54
2845.82,47
2844.86,41
2843.89,39
2842.93,37
2841.97,33
2841.00,29
2840.04,25
2839.07,22
2838.11,20
2837.15,17
2836.18,14
2835.22,11
2834.25,7
2833.29,5
2832.32,5
2831.36,6
2830.40,7
2829.43,6
2828.47,3
2827.50,2
2826.54,5
2825.57,7
2824.61,5
2823.65,4
2822.68,4
2821.72,6
2820.75,8
2819.79,9
2818.82,12
2817.86,11
2816.90,6
2815.93,5
2814.97,7
2814.00,10
2813.04,12
2812.08,9
2811.11,4
2810.15,2
2809.18,4
2808.22,7
2807.25,8
2806.29,8
2805.33,8
2804.36,8
2803.40,9
2802.43,8
2801.47,4
2800.50,2
2799.54,6
2798.58,8
2797.61,7
2796.65,5
2795.68,3
2794.72,1
2793.75,-1
2792.79,-1
2791.83,1
2790.86,2
2789.90,2
2788.93,2
2787.97,2
2787.00,4
2786.04,8
2785.08,10
2784.11,7
2783.15,2
2782.18,-1
2781.22,-2
2780.26,-2
2779.29,-2
2778.33,-3
2777.36,-3
2776.40,1
2775.43,3
2774.47,2
2773.51,0
2772.54,-2
2771.58,-3
2770.61,-1
2769.65,0
2768.68,-3
2767.72,-4
2766.76,-1
2765.79,-0
2764.83,-2
2763.86,-4
2762.90,-3
2761.93,-2
2760.97,-3
2760.01,-2
2759.04,0
2758.08,2
2757.11,-1
2756.15,-4
2755.19,-5
2754.22,-4
2753.26,-2
2752.29,-1
2751.33,-1
2750.36,-1
2749.40,-1
2748.44,-1
2747.47,-2
2746.51,-3
2745.54,-4
2744.58,-5
2743.61,-6
2742.65,-6
2741.69,-1
2740.72,3
2739.76,1
2738.79,-5
2737.83,-8
2736.86,-8
2735.90,-5
2734.94,0
2733.97,1
2733.01,0
2732.04,-0
2731.08,-1
2730.12,-2
2729.15,-1
2728.19,0
2727.22,1
2726.26,1
2725.29,1
2724.33,-0
2723.37,-1
2722.40,-2
2721.44,-2
2720.47,-2
2719.51,-1
2718.54,-0
2717.58,1
2716.62,3
2715.65,4
2714.69,3
2713.72,-0
2712.76,-3
2711.79,-4
2710.83,-4
2709.87,-4
2708.90,-2
2707.94,-1
2706.97,-3
2706.01,-6
2705.05,-8
2704.08,-10
2703.12,-6
2702.15,0
2701.19,2
2700.22,-4
2699.26,-8
2698.30,-6
2697.33,-4
2696.37,-3
2695.40,-4
2694.44,-5
2693.47,-4
2692.51,-0
2691.55,2
2690.58,-2
2689.62,-4
2688.65,-1
2687.69,2
2686.72,-1
2685.76,-3
2684.80,-3
2683.83,-2
2682.87,-0
2681.90,0
2680.94,-3
2679.98,-5
2679.01,-6
2678.05,-4
2677.08,-1
2676.12,3
2675.15,2
2674.19,-2
2673.23,-4
2672.26,-4
2671.30,-5
2670.33,-5
2669.37,-3
2668.40,-2
2667.44,-2
2666.48,-1
2665.51,-2
2664.55,-3
2663.58,-3
2662.62,-4
2661.65,-4
2660.69,-3
2659.73,-3
2658.76,-2
2657.80,0
2656.83,2
2655.87,1
2654.91,-1
2653.94,-4
2652.98,-4
2652.01,-3
2651.05,-1
2650.08,-0
2649.12,-1
2648.16,-2
2647.19,-4
2646.23,-4
2645.26,-2
2644.30,-0
2643.33,1
2642.37,3
2641.41,3
2640.44,3
2639.48,2
2638.51,1
2637.55,3
2636.58,5
2635.62,0
2634.66,-5
2633.69,-4
2632.73,-3
2631.76,-2
2630.80,-1
2629.83,-2
2628.87,-2
2627.91,3
2626.94,7
2625.98,4
2625.01,-1
2624.05,-2
2623.09,0
2622.12,2
2621.16,3
2620.19,3
2619.23,3
2618.26,4
2617.30,4
2616.34,3
2615.37,2
2614.41,2
2613.44,3
2612.48,2
2611.51,-1
2610.55,-2
2609.59,0
2608.62,2
2607.66,1
2606.69,1
2605.73,3
2604.76,4
2603.80,5
2602.84,4
2601.87,3
2600.91,2
2599.94,4
2598.98,6
2598.02,6
2597.05,6
2596.09,3
2595.12,0
2594.16,0
2593.19,0
2592.23,0
2591.27,0
2590.30,-1
2589.34,-2
2588.37,-2
2587.41,0
2586.44,1
2585.48,1
2584.52,1
2583.55,1
2582.59,-2
2581.62,-4
2580.66,-1
2579.69,4
2578.73,6
2577.77,4
2576.80,1
2575.84,1
2574.87,1
2573.91,2
2572.95,3
2571.98,5
2571.02,4
2570.05,5
2569.09,5
2568.12,4
2567.16,5
2566.20,7
2565.23,7
2564.27,6
2563.30,5
2562.34,3
2561.37,3
2560.41,5
2559.45,6
2558.48,4
2557.52,3
2556.55,4
2555.59,6
2554.62,5
2553.66,2
2552.70,0
2551.73,-1
2550.77,-0
2549.80,0
2548.84,0
2547.88,-1
2546.91,-1
2545.95,-1
2544.98,0
2544.02,2
2543.05,5
2542.09,7
2541.13,6
2540.16,4
2539.20,3
2538.23,4
2537.27,6
2536.30,4
2535.34,1
2534.38,0
2533.41,0
2532.45,0
2531.48,1
2530.52,2
2529.55,2
2528.59,1
2527.63,1
2526.66,1
2525.70,2
2524.73,2
2523.77,1
2522.81,-1
2521.84,-2
2520.88,-0
2519.91,3
2518.95,4
2517.98,2
2517.02,-2
2516.06,-6
2515.09,-8
2514.13,-7
2513.16,-4
2512.20,-2
2511.23,-2
2510.27,-3
2509.31,-3
2508.34,-2
2507.38,-1
2506.41,-1
2505.45,-3
2504.48,-5
2503.52,-5
2502.56,-4
2501.59,-2
2500.63,-3
2499.66,-4
2498.70,-4
2497.74,-2
2496.77,-1
2495.81,-1
2494.84,-1
2493.88,-2
2492.91,-3
2491.95,-4
2490.99,-2
2490.02,0
2489.06,2
2488.09,3
2487.13,1
2486.16,-2
2485.20,-4
2484.24,-6
2483.27,-4
2482.31,1
2481.34,3
2480.38,1
2479.41,-1
2478.45,-0
2477.49,2
2476.52,1
2475.56,0
2474.59,0
2473.63,2
2472.66,3
2471.70,2
2470.74,1
2469.77,1
2468.81,2
2467.84,4
2466.88,5
2465.92,6
2464.95,6
2463.99,4
2463.02,4
2462.06,5
2461.09,5
2460.13,3
2459.17,3
2458.20,4
2457.24,6
2456.27,9
2455.31,13
2454.34,18
2453.38,23
2452.42,26
2451.45,27
2450.49,26
2449.52,27
2448.56,28
2447.59,30
2446.63,32
2445.67,33
2444.70,38
2443.74,46
2442.77,52
2441.81,55
2440.85,57
2439.88,58
2438.92,58
2437.95,57
2436.99,56
2436.02,56
2435.06,56
2434.10,53
2433.13,49
2432.17,45
2431.20,41
2430.24,36
2429.27,30
2428.31,26
2427.35,22
2426.38,18
2425.42,14
2424.45,12
2423.49,11
2422.52,12
2421.56,12
2420.60,11
2419.63,9
2418.67,7
2417.70,7
2416.74,7
2415.78,4
2414.81,0
2413.85,-3
2412.88,-5
2411.92,-5
2410.95,-3
2409.99,-1
2409.03,-1
2408.06,-2
2407.10,-3
2406.13,-4
2405.17,-4
2404.20,-2
2403.24,0
2402.28,2
2401.31,4
2400.35,4
2399.38,5
2398.42,6
2397.45,5
2396.49,5
2395.53,4
2394.56,2
2393.60,0
2392.63,-0
2391.67,2
2390.71,5
2389.74,5
2388.78,4
2387.81,7
2386.85,9
2385.88,8
2384.92,6
2383.96,4
2382.99,4
2382.03,2
2381.06,-0
2380.10,1
2379.13,5
2378.17,9
2377.21,11
2376.24,11
2375.28,9
2374.31,6
2373.35,3
2372.38,2
2371.42,3
2370.46,5
2369.49,5
2368.53,4
2367.56,6
2366.60,10
2365.64,10
2364.67,5
2363.71,1
2362.74,-1
2361.78,-2
2360.81,-1
2359.85,1
2358.89,2
2357.92,1
2356.96,-0
2355.99,-1
2355.03,-1
2354.06,-2
2353.10,0
2352.14,2
2351.17,1
2350.21,-0
2349.24,1
2348.28,4
2347.31,4
2346.35,2
2345.39,-0
2344.42,-2
2343.46,-3
2342.49,-3
2341.53,-4
2340.57,-5
2339.60,-6
2338.64,-5
2337.67,-5
2336.71,-6
2335.74,-8
2334.78,-8
2333.82,-5
2332.85,-3
2331.89,-0
2330.92,4
2329.96,9
2328.99,12
2328.03,11
2327.07,9
2326.10,6
2325.14,3
2324.17,-0
2323.21,-4
2322.24,-8
2321.28,-11
2320.32,-12
2319.35,-10
2318.39,-7
2317.42,-5
2316.46,-5
2315.49,-7
2314.53,-7
2313.57,-5
2312.60,-4
2311.64,-5
2310.67,-6
2309.71,-6
2308.75,-6
2307.78,-8
2306.82,-9
2305.85,-8
2304.89,-8
2303.92,-8
2302.96,-8
2302.00,-7
2301.03,-8
2300.07,-11
2299.10,-14
2298.14,-13
2297.17,-10
2296.21,-10
2295.25,-10
2294.28,-12
2293.32,-13
2292.35,-11
2291.39,-8
2290.42,-6
2289.46,-6
2288.50,-9
2287.53,-12
2286.57,-14
2285.60,-10
2284.64,-6
2283.68,-6
2282.71,-8
2281.75,-5
2280.78,0
2279.82,1
2278.85,-2
2277.89,-5
2276.93,-3
2275.96,-0
2275.00,0
2274.03,0
2273.07,-0
2272.10,-0
2271.14,-1
2270.18,-0
2269.21,-1
2268.25,-2
2267.28,-4
2266.32,-5
2265.35,-6
2264.39,-5
2263.43,-2
2262.46,1
2261.50,4
2260.53,4
2259.57,4
2258.61,5
2257.64,4
2256.68,-1
2255.71,-5
2254.75,-7
2253.78,-5
2252.82,-2
2251.86,-0
2250.89,2
2249.93,4
2248.96,6
2248.00,8
2247.03,7
2246.07,2
2245.11,-1
2244.14,-1
2243.18,-2
2242.21,-3
2241.25,-4
2240.28,-3
2239.32,0
2238.36,2
2237.39,3
2236.43,2
2235.46,-2
2234.50,-6
2233.54,-7
2232.57,-6
2231.61,-1
2230.64,2
2229.68,1
2228.71,-2
2227.75,-4
2226.79,-4
2225.82,-4
2224.86,-5
2223.89,-4
2222.93,-2
2221.96,-2
2221.00,-3
2220.04,-4
2219.07,-4
2218.11,-5
2217.14,-7
2216.18,-6
2215.21,-6
2214.25,-3
2213.29,-0
2212.32,0
2211.36,-3
2210.39,-6
2209.43,-6
2208.47,-4
2207.50,-3
2206.54,-3
2205.57,-3
2204.61,-2
2203.64,-1
2202.68,-1
2201.72,-0
2200.75,3
2199.79,5
2198.82,4
2197.86,1
2196.89,-1
2195.93,-2
2194.97,-3
2194.00,-3
2193.04,-4
2192.07,-4
2191.11,-3
2190.14,-2
2189.18,0
2188.22,4
2187.25,7
2186.29,6
2185.32,4
2184.36,2
2183.40,0
2182.43,-0
2181.47,0
2180.50,-0
2179.54,-1
2178.57,-1
2177.61,-0
2176.65,1
2175.68,4
2174.72,4
2173.75,1
2172.79,-2
2171.82,-2
2170.86,-0
2169.90,2
2168.93,4
2167.97,4
2167.00,1
2166.04,-0
2165.07,0
2164.11,1
2163.15,3
2162.18,3
2161.22,3
2160.25,2
2159.29,2
2158.32,3
2157.36,5
2156.40,5
2155.43,2
2154.47,-2
2153.50,-3
2152.54,1
2151.58,6
2150.61,7
2149.65,6
2148.68,2
2147.72,-2
2146.75,-3
2145.79,-1
2144.83,2
2143.86,5
2142.90,3
2141.93,0
2140.97,-2
2140.00,0
2139.04,3
2138.08,2
2137.11,2
2136.15,3
2135.18,3
2134.22,2
2133.25,2
2132.29,5
2131.33,7
2130.36,6
2129.40,3
2128.43,0
2127.47,0
2126.51,1
2125.54,3
2124.58,4
2123.61,4
2122.65,3
2121.68,2
2120.72,2
2119.76,1
2118.79,0
2117.83,1
2116.86,2
2115.90,2
2114.93,1
2113.97,-0
2113.01,0
2112.04,1
2111.08,2
2110.11,3
2109.15,5
2108.18,6
2107.22,4
2106.26,0
2105.29,1
2104.33,4
2103.36,6
2102.40,6
2101.44,5
2100.47,4
2099.51,2
2098.54,3
2097.58,3
2096.61,1
2095.65,-3
2094.69,-3
2093.72,-2
2092.76,-2
2091.79,-2
2090.83,-1
2089.86,0
2088.90,1
2087.94,-0
2086.97,-2
2086.01,-3
2085.04,-3
2084.08,-0
2083.11,4
2082.15,4
2081.19,0
2080.22,0
2079.26,4
2078.29,4
2077.33,1
2076.37,-1
2075.40,2
2074.44,4
2073.47,5
2072.51,4
2071.54,1
2070.58,-1
2069.62,-3
2068.65,-3
2067.69,-3
2066.72,-4
2065.76,-4
2064.79,-2
2063.83,0
2062.87,1
2061.90,0
2060.94,-3
2059.97,-7
2059.01,-8
2058.04,-5
2057.08,-4
2056.12,-4
2055.15,-6
2054.19,-8
2053.22,-8
2052.26,-8
2051.30,-8
2050.33,-8
2049.37,-10
2048.40,-10
2047.44,-9
2046.47,-5
2045.51,-1
2044.55,2
2043.58,2
2042.62,2
2041.65,5
2040.69,7
2039.72,6
2038.76,3
2037.80,1
2036.83,1
2035.87,1
2034.90,3
2033.94,4
2032.97,1
2032.01,1
2031.05,3
2030.08,5
2029.12,3
2028.15,0
2027.19,-2
2026.23,-2
2025.26,-1
2024.30,0
2023.33,2
2022.37,5
2021.40,6
2020.44,3
2019.48,-0
2018.51,-2
2017.55,-3
2016.58,-2
2015.62,-1
2014.65,-0
2013.69,0
2012.73,1
2011.76,3
2010.80,5
2009.83,5
2008.87,4
2007.90,3
2006.94,3
2005.98,1
2005.01,-1
2004.05,-4
2003.08,-7
2002.12,-6
2001.15,-2
2000.19,1
1999.23,1
1998.26,-1
1997.30,-1
1996.33,-0
1995.37,-1
1994.41,-2
1993.44,-2
1992.48,-3
1991.51,-2
1990.55,1
1989.58,2
1988.62,0
1987.66,-0
1986.69,1
1985.73,4
1984.76,5
1983.80,7
1982.83,7
1981.87,6
1980.91,6
1979.94,6
1978.98,4
1978.01,-0
1977.05,-2
1976.08,0
1975.12,3
1974.16,3
1973.19,1
1972.23,0
1971.26,2
1970.30,6
1969.34,8
1968.37,8
1967.41,6
1966.44,4
1965.48,3
1964.51,4
1963.55,5
1962.59,7
1961.62,7
1960.66,7
1959.69,5
1958.73,5
1957.76,6
1956.80,5
1955.84,4
1954.87,4
1953.91,2
1952.94,1
1951.98,-1
1951.01,-1
1950.05,0
1949.09,1
1948.12,2
1947.16,2
1946.19,1
1945.23,-0
1944.27,-1
1943.30,0
1942.34,0
1941.37,0
1940.41,1
1939.44,4
1938.48,4
1937.52,1
1936.55,-2
1935.59,-2
1934.62,-0
1933.66,1
1932.69,0
1931.73,1
1930.77,4
1929.80,6
1928.84,4
1927.87,2
1926.91,2
1925.94,1
1924.98,4
1924.02,7
1923.05,6
1922.09,3
1921.12,1
1920.16,2
1919.20,3
1918.23,6
1917.27,8
1916.30,8
1915.34,5
1914.37,3
1913.41,1
1912.45,-1
1911.48,-1
1910.52,-0
1909.55,2
1908.59,4
1907.62,4
1906.66,2
1905.70,-1
1904.73,-4
1903.77,-5
1902.80,-4
1901.84,-2
1900.87,1
1899.91,3
1898.95,3
1897.98,4
1897.02,3
1896.05,2
1895.09,2
1894.13,3
1893.16,2
1892.20,1
1891.23,1
1890.27,0
1889.30,-0
1888.34,-1
1887.38,-0
1886.41,4
1885.45,9
1884.48,9
1883.52,3
1882.55,-2
1881.59,0
1880.63,3
1879.66,3
1878.70,1
1877.73,0
1876.77,-1
1875.80,0
1874.84,4
1873.88,9
1872.91,11
1871.95,12
1870.98,13
1870.02,11
1869.06,6
1868.09,2
1867.13,4
1866.16,8
1865.20,7
1864.23,3
1863.27,1
1862.31,4
1861.34,6
1860.38,6
1859.41,4
1858.45,3
1857.48,5
1856.52,5
1855.56,5
1854.59,5
1853.63,8
1852.66,10
1851.70,11
1850.73,10
1849.77,6
1848.81,2
1847.84,1
1846.88,1
1845.91,1
1844.95,1
1843.98,2
1843.02,4
1842.06,7
1841.09,9
1840.13,8
1839.16,5
1838.20,1
1837.24,0
1836.27,2
1835.31,4
1834.34,4
1833.38,3
1832.41,2
1831.45,0
1830.49,-2
1829.52,-4
1828.56,-4
1827.59,-0
1826.63,2
1825.66,0
1824.70,-3
1823.74,-1
1822.77,2
1821.81,1
1820.84,-3
1819.88,-4
1818.91,-1
1817.95,2
1816.99,-0
1816.02,-4
1815.06,-6
1814.09,-7
1813.13,-6
1812.17,-6
1811.20,-5
1810.24,-4
1809.27,-3
1808.31,-1
1807.34,1
1806.38,0
1805.42,-3
1804.45,-4
1803.49,-3
1802.52,-2
1801.56,-4
1800.59,-5
1799.63,-3
1798.67,0
1797.70,1
1796.74,0
1795.77,-1
1794.81,-4
1793.84,-6
1792.88,-6
1791.92,-5
1790.95,-6
1789.99,-6
1789.02,-7
1788.06,-8
1787.10,-8
1786.13,-8
1785.17,-7
1784.20,-5
1783.24,-4
1782.27,-5
1781.31,-8
1780.35,-9
1779.38,-8
1778.42,-8
1777.45,-7
1776.49,-5
1775.52,-5
1774.56,-5
1773.60,-7
1772.63,-7
1771.67,-5
1770.70,-2
1769.74,0
1768.77,-1
1767.81,-3
1766.85,-2
1765.88,-1
1764.92,-2
1763.95,-2
1762.99,-4
1762.03,-7
1761.06,-7
1760.10,-7
1759.13,-7
1758.17,-10
1757.20,-13
1756.24,-12
1755.28,-9
1754.31,-5
1753.35,-2
1752.38,-0
1751.42,-0
1750.45,-2
1749.49,-4
1748.53,-4
1747.56,-4
1746.60,-2
1745.63,-0
1744.67,3
1743.70,5
1742.74,5
1741.78,5
1740.81,2
1739.85,0
1738.88,-0
1737.92,1
1736.96,0
1735.99,-1
1735.03,-0
1734.06,1
1733.10,3
1732.13,2
1731.17,0
1730.21,-1
1729.24,0
1728.28,4
1727.31,7
1726.35,7
1725.38,0
1724.42,-7
1723.46,-8
1722.49,-5
1721.53,-3
1720.56,-1
1719.60,1
1718.63,1
1717.67,0
1716.71,0
1715.74,1
1714.78,0
1713.81,-1
1712.85,-2
1711.89,-6
1710.92,-7
1709.96,-5
1708.99,-3
1708.03,-4
1707.06,-7
1706.10,-7
1705.14,-7
1704.17,-6
1703.21,-4
1702.24,-4
1701.28,-4
1700.31,-4
1699.35,-3
1698.39,-3
1697.42,-2
1696.46,-3
1695.49,-5
1694.53,-7
1693.56,-7
1692.60,-5
1691.64,-3
1690.67,0
1689.71,3
1688.74,4
1687.78,4
1686.81,4
1685.85,6
1684.89,7
1683.92,7
1682.96,6
1681.99,4
1681.03,2
1680.07,3
1679.10,5
1678.14,8
1677.17,9
1676.21,9
1675.24,9
1674.28,9
1673.32,10
1672.35,10
1671.39,10
1670.42,11
1669.46,10
1668.49,6
1667.53,4
1666.57,6
1665.60,10
1664.64,12
1663.67,11
1662.71,7
1661.74,1
1660.78,-3
1659.82,1
1658.85,7
1657.89,8
1656.92,6
1655.96,4
1655.00,4
1654.03,4
1653.07,2
1652.10,2
1651.14,3
1650.17,6
1649.21,8
1648.25,10
1647.28,11
1646.32,10
1645.35,8
1644.39,8
1643.42,8
1642.46,6
1641.50,3
1640.53,1
1639.57,0
1638.60,-0
1637.64,-0
1636.67,-1
1635.71,0
1634.75,2
1633.78,3
1632.82,3
1631.85,1
1630.89,-2
1629.93,-8
1628.96,-8
1628.00,-5
1627.03,-5
1626.07,-6
1625.10,-4
1624.14,0
1623.18,3
1622.21,3
1621.25,0
1620.28,-2
1619.32,-2
1618.35,-1
1617.39,2
1616.43,7
1615.46,11
1614.50,15
1613.53,22
1612.57,29
1611.60,36
1610.64,45
1609.68,59
1608.71,80
1607.75,105
1606.78,131
1605.82,158
1604.86,182
1603.89,201
1602.93,210
1601.96,202
1601.00,182
1600.03,162
1599.07,138
1598.11,115
1597.14,92
1596.18,76
1595.21,65
1594.25,56
1593.28,48
1592.32,41
1591.36,36
1590.39,37
1589.43,41
1588.46,47
1587.50,55
1586.53,65
1585.57,77
1584.61,84
1583.64,88
1582.68,84
1581.71,74
1580.75,63
1579.79,56
1578.82,51
1577.86,46
1576.89,41
1575.93,36
1574.96,31
1574.00,26
1573.04,24
1572.07,24
1571.11,25
1570.14,27
1569.18,28
1568.21,28
1567.25,26
1566.29,23
1565.32,21
1564.36,19
1563.39,19
1562.43,18
1561.46,17
1560.50,16
1559.54,17
1558.57,20
1557.61,22
1556.64,24
1555.68,25
1554.72,24
1553.75,22
1552.79,20
1551.82,19
1550.86,18
1549.89,16
1548.93,15
1547.97,12
1547.00,9
1546.04,6
1545.07,5
1544.11,6
1543.14,8
1542.18,8
1541.22,5
1540.25,2
1539.29,0
1538.32,-1
1537.36,1
1536.39,4
1535.43,3
1534.47,1
1533.50,2
1532.54,5
1531.57,8
1530.61,10
1529.64,10
1528.68,9
1527.72,7
1526.75,6
1525.79,4
1524.82,4
1523.86,3
1522.90,-1
1521.93,-6
1520.97,-12
1520.00,-12
1519.04,-7
1518.07,-2
1517.11,0
1516.15,0
1515.18,-4
1514.22,-9
1513.25,-11
1512.29,-10
1511.32,-7
1510.36,-6
1509.40,-7
1508.43,-8
1507.47,-7
1506.50,-6
1505.54,-7
1504.57,-5
1503.61,-1
1502.65,-1
1501.68,-5
1500.72,-9
1499.75,-11
1498.79,-11
1497.83,-10
1496.86,-8
1495.90,-2
1494.93,4
1493.97,5
1493.00,2
1492.04,-1
1491.08,-4
1490.11,-6
1489.15,-5
1488.18,-2
1487.22,0
1486.25,-2
1485.29,-4
1484.33,-5
1483.36,-5
1482.40,-5
1481.43,-3
1480.47,-0
1479.50,2
1478.54,4
1477.58,6
1476.61,8
1475.65,9
1474.68,8
1473.72,5
1472.76,5
1471.79,5
1470.83,3
1469.86,2
1468.90,5
1467.93,12
1466.97,19
1466.01,24
1465.04,27
1464.08,28
1463.11,27
1462.15,25
1461.18,22
1460.22,15
1459.26,17
1458.29,24
1457.33,33
1456.36,42
1455.40,49
1454.43,52
1453.47,53
1452.51,52
1451.54,51
1450.58,51
1449.61,51
1448.65,50
1447.69,50
1446.72,46
1445.76,39
1444.79,33
1443.83,29
1442.86,28
1441.90,28
1440.94,29
1439.97,27
1439.01,22
1438.04,15
1437.08,12
1436.11,11
1435.15,11
1434.19,11
1433.22,11
1432.26,10
1431.29,9
1430.33,6
1429.36,0
1428.40,-4
1427.44,-3
1426.47,2
1425.51,5
1424.54,6
1423.58,2
1422.62,-2
1421.65,-4
1420.69,-4
1419.72,-3
1418.76,-2
1417.79,-2
1416.83,-3
1415.87,-5
1414.90,-6
1413.94,-4
1412.97,-1
1412.01,1
1411.04,0
1410.08,-1
1409.12,-3
1408.15,-5
1407.19,-7
1406.22,-7
1405.26,-6
1404.29,-5
1403.33,-6
1402.37,-8
1401.40,-11
1400.44,-12
1399.47,-10
1398.51,-6
1397.55,-2
1396.58,-0
1395.62,-1
1394.65,-1
1393.69,-1
1392.72,1
1391.76,3
1390.80,2
1389.83,0
1388.87,-3
1387.90,-4
1386.94,-4
1385.97,-5
1385.01,-7
1384.05,-8
1383.08,-7
1382.12,-3
1381.15,-0
1380.19,2
1379.22,2
1378.26,2
1377.30,4
1376.33,6
1375.37,7
1374.40,5
1373.44,3
1372.47,2
1371.51,2
1370.55,4
1369.58,4
1368.62,3
1367.65,0
1366.69,-1
1365.73,1
1364.76,1
1363.80,0
1362.83,-1
1361.87,-2
1360.90,-1
1359.94,1
1358.98,4
1358.01,4
1357.05,1
1356.08,-3
1355.12,-5
1354.15,-6
1353.19,-6
1352.23,-3
1351.26,-1
1350.30,-2
1349.33,-3
1348.37,-4
1347.40,-7
1346.44,-7
1345.48,-5
1344.51,-3
1343.55,-1
1342.58,-0
1341.62,2
1340.66,6
1339.69,9
1338.73,8
1337.76,4
1336.80,2
1335.83,2
1334.87,3
1333.91,4
1332.94,6
1331.98,9
1331.01,12
1330.05,15
1329.08,18
1328.12,19
1327.16,19
1326.19,17
1325.23,15
1324.26,13
1323.30,11
1322.33,10
1321.37,9
1320.41,8
1319.44,7
1318.48,4
1317.51,1
1316.55,-1
1315.59,0
1314.62,3
1313.66,5
1312.69,6
1311.73,2
1310.76,-4
1309.80,-7
1308.84,-6
1307.87,-3
1306.91,-0
1305.94,1
1304.98,2
1304.01,2
1303.05,-1
1302.09,-2
1301.12,-3
1300.16,-3
1299.19,-0
1298.23,2
1297.26,1
1296.30,-0
1295.34,-0
1294.37,2
1293.41,4
1292.44,3
1291.48,1
1290.52,1
1289.55,3
1288.59,3
1287.62,4
1286.66,6
1285.69,9
1284.73,8
1283.77,3
1282.80,-3
1281.84,-5
1280.87,-3
1279.91,3
1278.94,7
1277.98,10
1277.02,10
1276.05,8
1275.09,6
1274.12,6
1273.16,7
1272.19,5
1271.23,3
1270.27,2
1269.30,0
1268.34,-0
1267.37,0
1266.41,2
1265.45,1
1264.48,-1
1263.52,2
1262.55,6
1261.59,7
1260.62,6
1259.66,5
1258.70,5
1257.73,7
1256.77,10
1255.80,12
1254.84,11
1253.87,4
1252.91,-4
1251.95,-10
1250.98,-12
1250.02,-12
1249.05,-11
1248.09,-8
1247.12,-5
1246.16,-3
1245.20,-2
1244.23,-1
1243.27,-0
1242.30,0
1241.34,-1
1240.38,-2
1239.41,-3
1238.45,-3
1237.48,-2
1236.52,1
1235.55,3
1234.59,2
1233.63,2
1232.66,2
1231.70,2
1230.73,3
1229.77,3
1228.80,6
1227.84,9
1226.88,13
1225.91,15
1224.95,17
1223.98,20
1223.02,24
1222.05,26
1221.09,28
1220.13,30
1219.16,34
1218.20,39
1217.23,40
1216.27,42
1215.30,43
1214.34,44
1213.38,44
1212.41,44
1211.45,45
1210.48,49
1209.52,59
1208.56,73
1207.59,83
1206.63,90
1205.66,97
1204.70,104
1203.73,112
1202.77,118
1201.81,123
1200.84,125
1199.88,125
1198.91,122
1197.95,118
1196.98,116
1196.02,115
1195.06,115
1194.09,113
1193.13,110
1192.16,106
1191.20,102
1190.23,99
1189.27,98
1188.31,98
1187.34,100
1186.38,105
1185.41,112
1184.45,118
1183.49,124
1182.52,124
1181.56,118
1180.59,110
1179.63,101
1178.66,92
1177.70,82
1176.74,73
1175.77,61
1174.81,51
1173.84,42
1172.88,38
1171.91,37
1170.95,38
1169.99,38
1169.02,37
1168.06,35
1167.09,31
1166.13,31
1165.16,34
1164.20,36
1163.24,39
1162.27,42
1161.31,46
1160.34,53
1159.38,62
1158.42,71
1157.45,80
1156.49,83
1155.52,84
1154.56,83
1153.59,77
1152.63,67
1151.67,55
1150.70,40
1149.74,31
1148.77,26
1147.81,22
1146.84,18
1145.88,15
1144.92,14
1143.95,14
1142.99,14
1142.02,12
1141.06,11
1140.09,11
1139.13,10
1138.17,6
1137.20,0
1136.24,-4
1135.27,-3
1134.31,1
1133.35,3
1132.38,3
1131.42,2
1130.45,1
1129.49,1
1128.52,2
1127.56,3
1126.60,4
1125.63,4
1124.67,4
1123.70,3
1122.74,1
1121.77,-1
1120.81,-2
1119.85,-4
1118.88,-4
1117.92,-3
1116.95,-3
1115.99,-4
1115.02,-4
1114.06,-2
1113.10,1
1112.13,1
1111.17,0
1110.20,-2
1109.24,-2
1108.28,0
1107.31,4
1106.35,8
1105.38,9
1104.42,7
1103.45,2
1102.49,-2
1101.53,-4
1100.56,-4
1099.60,-1
1098.63,3
1097.67,8
1096.70,9
1095.74,8
1094.78,3
1093.81,-2
1092.85,-5
1091.88,-3
1090.92,-1
1089.95,1
1088.99,2
1088.03,0
1087.06,-1
1086.10,-0
1085.13,1
1084.17,-1
1083.21,-4
1082.24,-6
1081.28,-7
1080.31,-7
1079.35,-8
1078.38,-9
1077.42,-10
1076.46,-7
1075.49,-3
1074.53,-1
1073.56,-1
1072.60,-1
1071.63,-2
1070.67,-4
1069.71,-5
1068.74,-4
1067.78,-3
1066.81,-4
1065.85,-3
1064.88,-0
1063.92,1
1062.96,-0
1061.99,-5
1061.03,-9
1060.06,-7
1059.10,-4
1058.13,-2
1057.17,-1
1056.21,0
1055.24,4
1054.28,5
1053.31,3
1052.35,2
1051.39,4
1050.42,8
1049.46,10
1048.49,10
1047.53,9
1046.56,10
1045.60,14
1044.64,20
1043.67,26
1042.71,33
1041.74,41
1040.78,52
1039.81,65
1038.85,80
1037.89,95
1036.92,112
1035.96,130
1034.99,148
1034.03,163
1033.06,175
1032.10,179
1031.14,179
1030.17,174
1029.21,163
1028.24,148
1027.28,131
1026.32,112
1025.35,94
1024.39,80
1023.42,69
1022.46,60
1021.49,54
1020.53,51
1019.57,51
1018.60,50
1017.64,50
1016.67,51
1015.71,52
1014.74,55
1013.78,59
1012.82,64
1011.85,71
1010.89,82
1009.92,103
1008.96,137
1007.99,194
1007.03,272
1006.07,372
1005.10,486
1004.14,585
1003.17,659
1002.21,707
1001.25,698
1000.28,642
999.32,557
998.35,443
997.39,335
996.42,247
995.46,180
994.50,137
993.53,119
992.57,109
991.60,95
990.64,84
989.67,77
988.71,72
987.75,67
986.78,59
985.82,50
984.85,45
983.89,41
982.92,37
981.96,31
981.00,25
980.03,22
979.07,21
978.10,19
977.14,15
976.18,11
975.21,8
974.25,4
973.28,2
972.32,1
971.35,0
970.39,3
969.43,7
968.46,11
967.50,12
966.53,10
965.57,7
964.60,5
963.64,4
962.68,4
961.71,7
960.75,13
959.78,16
958.82,16
957.85,11
956.89,7
955.93,7
954.96,8
954.00,8
953.03,6
952.07,5
951.11,2
950.14,2
949.18,1
948.21,-1
947.25,-6
946.28,-13
945.32,-20
944.36,-24
943.39,-24
942.43,-23
941.46,-22
940.50,-19
939.53,-12
938.57,-4
937.61,2
936.64,4
935.68,4
934.71,6
933.75,10
932.78,13
931.82,14
930.86,14
929.89,12
928.93,8
927.96,5
927.00,3
926.04,0
925.07,-0
924.11,1
923.14,5
922.18,14
921.21,22
920.25,25
919.29,23
918.32,14
917.36,0
916.39,-13
915.43,-18
914.46,-16
913.50,-12
912.54,-7
911.57,-3
910.61,3
909.64,9
908.68,14
907.71,17
906.75,19
905.79,19
904.82,16
903.86,11
902.89,6
901.93,4
900.96,4
900.00,3
899.04,-3
898.07,-10
897.11,-14
896.14,-9
895.18,0
894.22,12
893.25,24
892.29,39
891.32,58
890.36,79
889.39,100
888.43,119
887.47,131
886.50,130
885.54,124
884.57,120
883.61,115
882.64,108
881.68,98
880.72,84
879.75,72
878.79,63
877.82,56
876.86,50
875.89,50
874.93,58
873.97,73
873.00,79
872.04,71
871.07,61
870.11,56
869.15,53
868.18,50
867.22,47
866.25,46
865.29,45
864.32,47
863.36,48
862.40,45
861.43,38
860.47,32
859.50,27
858.54,17
857.57,5
856.61,-7
855.65,-15
854.68,-20
853.72,-19
852.75,-10
851.79,-0
850.82,-1
849.86,-7
848.90,-12
847.93,-16
846.97,-20
846.00,-22
845.04,-24
844.08,-17
843.11,-1
842.15,16
841.18,23
840.22,21
839.25,16
838.29,13
837.33,-3
836.36,-45
835.40,-100
834.43,-130
833.47,-87
832.50,-16
831.54,4
830.58,7
829.61,6
828.65,2
827.68,-6
826.72,-11
825.75,-15
824.79,-18
823.83,-21
822.86,-21
821.90,-18
820.93,-14
819.97,-11
819.01,-11
818.04,-12
817.08,-14
816.11,-16
815.15,-16
814.18,-11
813.22,-4
812.26,-1
811.29,-1
810.33,-1
809.36,1
808.40,4
807.43,4
806.47,3
805.51,5
804.54,9
803.58,13
802.61,14
801.65,12
800.68,14
799.72,24
798.76,34
797.79,38
796.83,35
795.86,27
794.90,14
793.94,-0
792.97,-4
792.01,-5
791.04,-5
790.08,-3
789.11,-0
788.15,-1
787.19,-4
786.22,-4
785.26,-0
784.29,3
783.33,4
782.36,-0
781.40,-4
780.44,-6
779.47,-10
778.51,-16
777.54,-20
776.58,-21
775.61,-19
774.65,-16
773.69,-11
772.72,-5
771.76,-1
770.79,0
769.83,1
768.87,1
767.90,-3
766.94,-7
765.97,-6
765.01,-2
764.04,2
763.08,1
762.12,-3
761.15,-12
760.19,-22
759.22,-26
758.26,-26
757.29,-25
756.33,-26
755.37,-26
754.40,-25
753.44,-21
752.47,-18
751.51,-18
750.54,-20
749.58,-21
748.62,-17
747.65,-11
746.69,-5
745.72,-0
744.76,2
743.79,-1
742.83,-7
741.87,-13
740.90,-16
739.94,-16
738.97,-13
738.01,-10
737.05,-5
736.08,2
735.12,7
734.15,11
733.19,14
732.22,16
731.26,18
730.30,16
729.33,11
728.37,6
727.40,4
726.44,3
725.47,0
724.51,-5
723.55,-10
722.58,-15
721.62,-19
720.65,-21
719.69,-19
718.72,-15
717.76,-10
716.80,-5
715.83,-0
714.87,2
713.90,1
712.94,-1
711.98,-2
711.01,-1
710.05,-0
709.08,2
708.12,4
707.15,7
706.19,7
705.23,9
704.26,11
703.30,13
702.33,14
701.37,16
700.40,15
699.44,13
698.48,10
697.51,9
696.55,9
695.58,7
694.62,2
693.65,-2
692.69,-4
691.73,-4
690.76,-3
689.80,-4
688.83,-6
687.87,-6
686.91,20
685.94,43
684.98,42
684.01,29
683.05,31
682.08,38
681.12,14
680.16,-9
679.19,-16
678.23,-9
677.26,-1
676.30,-0
675.33,0
674.37,-1
673.41,-2
672.44,-4
671.48,-4
670.51,-5
669.55,-8
668.58,-9
667.62,-8
666.66,-8
665.69,-10
664.73,-12
663.76,-10
662.80,-7
661.84,-4
660.87,-1
659.91,3
658.94,5
657.98,3
657.01,-0
656.05,-0
655.09,2
654.12,5
653.16,5
652.19,4
651.23,2
650.26,-2
649.30,-6
648.34,-7
647.37,-5
646.41,-5
645.44,-4
644.48,-1
643.51,3
642.55,8
641.59,8
640.62,5
639.66,-0
638.69,-2
637.73,0
636.77,4
635.80,10
634.84,15
633.87,20
632.91,23
631.94,25
630.98,28
630.02,30
629.05,29
628.09,28
627.12,34
626.16,48
625.19,64
624.23,81
623.27,97
622.30,105
621.34,103
620.37,95
619.41,83
618.44,68
617.48,50
616.52,37
615.55,24
614.59,14
613.62,8
612.66,3
611.70,-0
610.73,0
609.77,-0
608.80,-1
607.84,-0
606.87,1
605.91,4
604.95,6
603.98,7
603.02,7
602.05,7
601.09,5
600.12,4
599.16,1
598.20,-2
597.23,-5
596.27,-7
595.30,-9
594.34,-9
593.37,-6
592.41,-3
591.45,-0
590.48,2
589.52,3
588.55,3
587.59,2
586.62,1
585.66,0
584.70,0
583.73,2
582.77,4
581.80,8
580.84,10
579.88,8
578.91,4
577.95,-0
576.98,-3
576.02,-4
575.05,-2
574.09,1
573.13,2
572.16,0
571.20,-4
570.23,-8
569.27,-9
568.30,-10
567.34,-8
566.38,-6
565.41,-3
564.45,-5
563.48,-8
562.52,-9
561.55,-8
560.59,-8
559.63,-11
558.66,-13
557.70,-15
556.73,-15
555.77,-13
554.81,-10
553.84,-7
552.88,-6
551.91,-4
550.95,-1
549.98,0
549.02,1
548.06,1
547.09,3
546.13,3
545.16,2
544.20,-1
543.23,-4
542.27,-3
541.31,-3
540.34,-2
539.38,-1
538.41,0
537.45,-2
536.48,-4
535.52,-5
534.56,-6
533.59,-6
532.63,-6
531.66,-5
530.70,-4
529.74,-4
528.77,-3
527.81,-3
526.84,-5
525.88,-7
524.91,-7
523.95,-6
522.99,-6
522.02,-6
521.06,-6
520.09,-4
519.13,-2
518.16,-1
517.20,-0
516.24,-1
515.27,-3
514.31,-4
513.34,-2
512.38,1
511.41,4
510.45,4
509.49,-1
508.52,-6
507.56,-8
506.59,-8
505.63,-5
504.67,-2
503.70,-0
502.74,0
501.77,1
500.81,1
499.84,1
498.88,-0
497.92,-4
496.95,-8
495.99,-10
495.02,-10
494.06,-6
493.09,-2
492.13,-2
491.17,-3
490.20,-2
489.24,1
488.27,9
487.31,27
486.34,50
485.38,67
484.42,75
483.45,78
482.49,72
481.52,61
480.56,48
479.60,32
478.63,15
477.67,5
476.70,5
475.74,6
474.77,4
473.81,-0
472.85,-3
471.88,-3
470.92,-2
469.95,-1
468.99,-0
468.02,0
467.06,-1
466.10,-2
465.13,-3
464.17,-3
463.20,-2
462.24,-2
461.27,-2
460.31,-4
459.35,-8
458.38,-11
457.42,-11
456.45,-8
455.49,-4
454.53,-0
453.56,1
452.60,1
451.63,1
450.67,2
449.70,0
448.74,-1
447.78,-2
446.81,-2
445.85,-2
444.88,-2
443.92,-1
442.95,0
441.99,1
441.03,1
440.06,1
439.10,1
438.13,1
437.17,1
436.20,1
435.24,2
434.28,1
433.31,-1
432.35,-2
431.38,0
430.42,4
429.45,5
428.49,6
427.53,8
426.56,10
425.60,10
424.63,7
423.67,2
422.71,1
421.74,3
420.78,6
419.81,9
418.85,8
417.88,7
416.92,6
415.96,5
414.99,4
414.03,3
413.06,2
412.10,0
411.13,-2
410.17,-3
409.21,-1
408.24,3
407.28,3
406.31,2
405.35,0
404.38,0
403.42,3
402.46,4
401.49,4
400.53,3
399.56,2
398.60,2
397.64,1
396.67,-4
395.71,-8
394.74,-9
393.78,-6
392.81,-1
391.85,-0
390.89,-3
389.92,-8
388.96,-9
387.99,-6
387.03,-3
386.06,0
385.10,3
384.14,6
383.17,7
382.21,7
381.24,6
380.28,5
379.31,3
378.35,0
377.39,-1
376.42,-0
375.46,3
374.49,6
373.53,4
372.57,0
371.60,-2
370.64,-2
369.67,-2
368.71,-2
367.74,-3
366.78,-4
365.82,-5
364.85,-6
363.89,-4
362.92,-1
361.96,0
360.99,-4
360.03,-9
359.07,-13
358.10,-12
357.14,-7
356.17,-3
355.21,1
354.24,4
353.28,7
352.32,5
351.35,-1
350.39,-6
349.42,-9
348.46,-9
347.50,-7
346.53,-4
345.57,-2
344.60,-2
343.64,-2
342.67,-1
341.71,0
340.75,2
339.78,3
338.82,4
337.85,3
336.89,1
335.92,1
334.96,1
334.00,1
333.03,1
332.07,2
331.10,1
330.14,-0
329.17,1
328.21,5
327.25,13
326.28,18
325.32,19
324.35,18
323.39,14
322.43,10
321.46,7
320.50,5
319.53,3
318.57,0
317.60,-3
316.64,-5
315.68,-6
314.71,-6
313.75,-5
312.78,-4
311.82,-3
310.85,-2
309.89,-1
308.93,-2
307.96,-5
307.00,-11
306.03,-18
305.07,-21
304.10,-21
303.14,-17
302.18,-10
301.21,-5
300.25,-4
299.28,-5
298.32,-8
297.36,-9
296.39,-7
295.43,-4
294.46,-2
293.50,-1
292.53,0
291.57,1
290.61,0
289.64,0
288.68,0
287.71,0
286.75,0
285.78,1
284.82,2
283.86,3
282.89,4
281.93,6
280.96,8
280.00,8
279.03,6
278.07,4
277.11,2
276.14,1
275.18,0
274.21,-1
273.25,-2
272.28,0
271.32,5
270.36,7
269.39,7
268.43,5
267.46,4
266.50,3
265.54,3
264.57,3
263.61,1
262.64,0
261.68,0
260.71,2
259.75,6
258.79,11
257.82,16
256.86,13
255.89,6
254.93,1
253.96,0
253.00,3
252.04,5
251.07,6
250.11,6
249.14,6
248.18,7
247.21,9
246.25,14
245.29,20
244.32,24
243.36,26
242.39,28
241.43,30
240.47,33
239.50,36
238.54,39
237.57,42
236.61,45
235.64,49
234.68,55
233.72,63
232.75,71
231.79,96
230.82,137
229.86,189
228.89,228
227.93,249
226.97,261
226.00,265
225.04,258
224.07,237
223.11,192
222.14,141
221.18,103
220.22,88
219.25,85
218.29,80
217.32,77
216.36,76
215.40,73
214.43,69
213.47,61
212.50,53
211.54,48
210.57,48
209.61,51
208.65,54
207.68,53
206.72,49
205.75,42
204.79,35
203.82,31
202.86,30
201.90,30
200.93,29
199.97,29
199.00,29
198.04,28
197.07,27
196.11,27
195.15,28
194.18,29
193.22,27
192.25,23
191.29,18
190.33,13
189.36,10
188.40,7
187.43,4
186.47,2
185.50,2
184.54,4
183.58,6
182.61,7
181.65,5
180.68,1
179.72,0
178.75,1
177.79,2
176.83,-1
175.86,-7
174.90,-8
173.93,-5
172.97,-1
172.00,1
171.04,1
170.08,-1
169.11,-4
168.15,-6
167.18,-8
166.22,-6
165.26,-3
164.29,-0
163.33,-1
162.36,-2
161.40,-3
160.43,-4
159.47,-5
158.51,-4
157.54,-2
156.58,-2
155.61,-4
154.65,-6
153.68,-8
152.72,-8
151.76,-8
150.79,-8
149.83,-7
148.86,-5
147.90,-4
146.93,-2
145.97,-2
145.01,-2
144.04,-2
143.08,3
142.11,11
141.15,16
140.19,19
139.22,19
138.26,22
137.29,24
136.33,28
135.36,35
134.40,42
133.44,44
132.47,45
131.51,48
130.54,55
129.58,68
128.61,82
127.65,94
126.69,104
125.72,112
124.76,118
123.79,126
122.83,135
121.86,146
120.90,160
119.94,178
118.97,197
118.01,215
117.04,231
116.08,244
115.11,257
114.15,272
113.19,289
112.22,311
111.26,339
110.29,368
109.33,397
108.37,426
107.40,454
106.44,479
105.47,502
104.51,521
103.54,538
102.58,554
101.62,575
100.65,599
99.69,627
98.72,660
97.76,697
96.79,727
95.83,756
94.87,785
93.90,817
92.94,852
91.97,884
91.01,912
90.04,937
89.08,963
88.12,995
87.15,1026
86.19,1056
85.22,1086
84.26,1116
83.30,1141
82.33,1165
81.37,1189
80.40,1214
79.44,1237
78.47,1265
77.51,1297
76.55,1331
