Created As Omnic File,PLAS 100
Raman Shift / cm-1,INT
3418.58,3
3417.61,4
3416.65,3
3415.68,1
3414.72,1
3413.76,0
3412.79,0
3411.83,1
3410.86,2
3409.90,2
3408.94,0
3407.97,1
3407.01,2
3406.04,2
3405.08,2
3404.11,2
3403.15,2
3402.19,0
3401.22,-2
3400.26,-2
3399.29,-1
3398.33,-1
3397.36,-0
3396.40,-1
3395.44,-1
3394.47,-2
3393.51,-1
3392.54,-0
3391.58,1
3390.61,1
3389.65,1
3388.69,-1
3387.72,-1
3386.76,1
3385.79,2
3384.83,2
3383.87,2
3382.90,0
3381.94,0
3380.97,-1
3380.01,-1
3379.04,-1
3378.08,-1
3377.12,0
3376.15,0
3375.19,1
3374.22,1
3373.26,2
3372.29,3
3371.33,1
3370.37,-0
3369.40,2
3368.44,2
3367.47,-1
3366.51,-3
3365.54,-2
3364.58,-3
3363.62,-3
3362.65,-2
3361.69,0
3360.72,-2
3359.76,-5
3358.80,-4
3357.83,-2
3356.87,-1
3355.90,-1
3354.94,-2
3353.97,-2
3353.01,-2
3352.05,-2
3351.08,-2
3350.12,-1
3349.15,-1
3348.19,-0
3347.22,0
3346.26,1
3345.30,2
3344.33,3
3343.37,3
3342.40,3
3341.44,4
3340.47,5
3339.51,6
3338.55,5
3337.58,5
3336.62,7
3335.65,8
3334.69,8
3333.73,9
3332.76,12
3331.80,12
3330.83,13
3329.87,13
3328.90,14
3327.94,16
3326.98,18
3326.01,18
3325.05,19
3324.08,22
3323.12,23
3322.15,23
3321.19,24
3320.23,25
3319.26,25
3318.30,25
3317.33,27
3316.37,28
3315.40,28
3314.44,28
3313.48,29
3312.51,29
3311.55,29
3310.58,27
3309.62,25
3308.66,24
3307.69,23
3306.73,22
3305.76,19
3304.80,17
3303.83,16
3302.87,13
3301.91,8
3300.94,6
3299.98,6
3299.01,4
3298.05,3
3297.08,1
3296.12,-1
3295.16,-3
3294.19,-5
3293.23,-4
3292.26,-4
3291.30,-5
3290.33,-7
3289.37,-9
3288.41,-10
3287.44,-9
3286.48,-8
3285.51,-8
3284.55,-7
3283.59,-6
3282.62,-6
3281.66,-7
3280.69,-6
3279.73,-4
3278.76,0
3277.80,-0
3276.84,-2
3275.87,-4
3274.91,-5
3273.94,-4
3272.98,-2
3272.01,-1
3271.05,-1
3270.09,-2
3269.12,-5
3268.16,-5
3267.19,-4
3266.23,-5
3265.26,-5
3264.30,-4
3263.34,-4
3262.37,-3
3261.41,-4
3260.44,-4
3259.48,-5
3258.51,-3
3257.55,-2
3256.59,-2
3255.62,-3
3254.66,-4
3253.69,-4
3252.73,-4
3251.77,-4
3250.80,-4
3249.84,-4
3248.87,-3
3247.91,-2
3246.94,-1
3245.98,-1
3245.02,-2
3244.05,-3
3243.09,-2
3242.12,-1
3241.16,-1
3240.19,-3
3239.23,-4
3238.27,-2
3237.30,-1
3236.34,-1
3235.37,0
3234.41,0
3233.44,0
3232.48,-0
3231.52,-1
3230.55,-1
3229.59,-1
3228.62,-1
3227.66,-2
3226.70,-4
3225.73,-4
3224.77,-4
3223.80,-3
3222.84,-2
3221.87,-3
3220.91,-4
3219.95,-3
3218.98,-3
3218.02,-4
3217.05,-4
3216.09,-3
3215.12,-3
3214.16,-3
3213.20,-3
3212.23,-2
3211.27,-3
3210.30,-4
3209.34,-4
3208.37,-4
3207.41,-4
3206.45,-5
3205.48,-5
3204.52,-5
3203.55,-3
3202.59,-2
3201.63,-3
3200.66,-3
3199.70,-3
3198.73,-3
3197.77,-3
3196.80,-2
3195.84,-1
3194.88,-2
3193.91,-5
3192.95,-5
3191.98,-2
3191.02,-2
3190.05,-3
3189.09,-1
3188.13,1
3187.16,0
3186.20,-0
3185.23,2
3184.27,3
3183.30,3
3182.34,2
3181.38,0
3180.41,-0
3179.45,2
3178.48,2
3177.52,1
3176.56,1
3175.59,2
3174.63,2
3173.66,1
3172.70,1
3171.73,2
3170.77,3
3169.81,4
3168.84,4
3167.88,3
3166.91,3
3165.95,3
3164.98,1
3164.02,-0
3163.06,0
3162.09,2
3161.13,4
3160.16,5
3159.20,5
3158.23,3
3157.27,2
3156.31,2
3155.34,4
3154.38,4
3153.41,3
3152.45,1
3151.49,-0
3150.52,0
3149.56,1
3148.59,3
3147.63,5
3146.66,5
3145.70,4
3144.74,4
3143.77,3
3142.81,3
3141.84,3
3140.88,4
3139.91,3
3138.95,2
3137.99,1
3137.02,2
3136.06,2
3135.09,3
3134.13,3
3133.16,3
3132.20,2
3131.24,1
3130.27,0
3129.31,1
3128.34,1
3127.38,2
3126.42,3
3125.45,3
3124.49,4
3123.52,2
3122.56,2
3121.59,2
3120.63,2
3119.67,2
3118.70,2
3117.74,1
3116.77,1
3115.81,2
3114.84,2
3113.88,2
3112.92,2
3111.95,3
3110.99,3
3110.02,3
3109.06,3
3108.09,3
3107.13,4
3106.17,3
3105.20,1
3104.24,-0
3103.27,2
3102.31,3
3101.34,2
3100.38,3
3099.42,4
3098.45,4
3097.49,2
3096.52,2
3095.56,3
3094.60,3
3093.63,2
3092.67,0
3091.70,-0
3090.74,1
3089.77,4
3088.81,3
3087.85,2
3086.88,1
3085.92,1
3084.95,1
3083.99,1
3083.02,1
3082.06,1
3081.10,2
3080.13,2
3079.17,1
3078.20,1
3077.24,1
3076.27,2
3075.31,2
3074.35,2
3073.38,2
3072.42,2
3071.45,3
3070.49,4
3069.53,3
3068.56,2
3067.60,1
3066.63,1
3065.67,1
3064.70,1
3063.74,1
3062.78,1
3061.81,1
3060.85,1
3059.88,1
3058.92,1
3057.95,2
3056.99,3
3056.03,3
3055.06,3
3054.10,2
3053.13,2
3052.17,2
3051.20,1
3050.24,0
3049.28,-1
3048.31,-2
3047.35,-3
3046.38,-3
3045.42,0
3044.46,1
3043.49,-2
3042.53,-3
3041.56,-2
3040.60,-1
3039.63,-1
3038.67,1
3037.71,4
3036.74,4
3035.78,3
3034.81,0
3033.85,-2
3032.88,-2
3031.92,1
3030.96,2
3029.99,2
3029.03,1
3028.06,1
3027.10,1
3026.13,1
3025.17,2
3024.21,3
3023.24,2
3022.28,0
3021.31,0
3020.35,1
3019.39,2
3018.42,4
3017.46,5
3016.49,5
3015.53,6
3014.56,7
3013.60,8
3012.64,9
3011.67,7
3010.71,5
3009.74,6
3008.78,8
3007.81,10
3006.85,11
3005.89,10
3004.92,10
3003.96,11
3002.99,12
3002.03,13
3001.06,14
3000.10,16
2999.14,17
2998.17,18
2997.21,19
2996.24,21
2995.28,22
2994.32,23
2993.35,26
2992.39,31
2991.42,33
2990.46,34
2989.49,37
2988.53,40
2987.57,42
2986.60,44
2985.64,47
2984.67,52
2983.71,55
2982.74,59
2981.78,63
2980.82,68
2979.85,73
2978.89,79
2977.92,85
2976.96,89
2975.99,94
2975.03,100
2974.07,106
2973.10,112
2972.14,121
2971.17,128
2970.21,133
2969.25,140
2968.28,150
2967.32,161
2966.35,169
2965.39,177
2964.42,187
2963.46,196
2962.50,201
2961.53,208
2960.57,219
2959.60,229
2958.64,238
2957.67,246
2956.71,254
2955.75,262
2954.78,271
2953.82,280
2952.85,290
2951.89,303
2950.92,319
2949.96,333
2949.00,345
2948.03,358
2947.07,374
2946.10,389
2945.14,403
2944.17,416
2943.21,431
2942.25,448
2941.28,466
2940.32,483
2939.35,499
2938.39,513
2937.43,528
2936.46,544
2935.50,560
2934.53,576
2933.57,591
2932.60,604
2931.64,616
2930.68,625
2929.71,631
2928.75,640
2927.78,651
2926.82,656
2925.85,656
2924.89,657
2923.93,659
2922.96,660
2922.00,660
2921.03,660
2920.07,659
2919.10,658
2918.14,659
2917.18,661
2916.21,663
2915.25,667
2914.28,673
2913.32,679
2912.36,685
2911.39,690
2910.43,696
2909.46,705
2908.50,715
2907.53,723
2906.57,728
2905.61,732
2904.64,733
2903.68,732
2902.71,731
2901.75,730
2900.78,726
2899.82,717
2898.86,706
2897.89,693
2896.93,679
2895.96,659
2895.00,638
2894.03,620
2893.07,605
2892.11,588
2891.14,573
2890.18,562
2889.21,551
2888.25,543
2887.29,537
2886.32,533
2885.36,532
2884.39,532
2883.43,531
2882.46,531
2881.50,532
2880.54,536
2879.57,541
2878.61,547
2877.64,551
2876.68,553
2875.71,554
2874.75,555
2873.79,555
2872.82,555
2871.86,555
2870.89,556
2869.93,555
2868.96,550
2868.00,545
2867.04,541
2866.07,537
2865.11,532
2864.14,526
2863.18,522
2862.22,517
2861.25,508
2860.29,499
2859.32,493
2858.36,487
2857.39,481
2856.43,475
2855.47,468
2854.50,461
2853.54,448
2852.57,433
2851.61,415
2850.64,393
2849.68,368
2848.72,342
2847.75,317
2846.79,290
2845.82,262
2844.86,238
2843.89,218
2842.93,200
2841.97,182
2841.00,165
2840.04,149
2839.07,136
2838.11,124
2837.15,115
2836.18,107
2835.22,99
2834.25,90
2833.29,82
2832.32,79
2831.36,79
2830.40,79
2829.43,77
2828.47,70
2827.50,66
2826.54,65
2825.57,63
2824.61,60
2823.65,57
2822.68,57
2821.72,58
2820.75,55
2819.79,53
2818.82,50
2817.86,46
2816.90,41
2815.93,39
2814.97,38
2814.00,39
2813.04,37
2812.08,34
2811.11,32
2810.15,31
2809.18,31
2808.22,31
2807.25,30
2806.29,28
2805.33,25
2804.36,23
2803.40,21
2802.43,19
2801.47,16
2800.50,15
2799.54,17
2798.58,19
2797.61,17
2796.65,14
2795.68,14
2794.72,14
2793.75,13
2792.79,11
2791.83,8
2790.86,7
2789.90,9
2788.93,11
2787.97,9
2787.00,9
2786.04,10
2785.08,11
2784.11,11
2783.15,10
2782.18,6
2781.22,4
2780.26,3
2779.29,4
2778.33,5
2777.36,6
2776.40,3
2775.43,0
2774.47,-0
2773.51,1
2772.54,3
2771.58,4
2770.61,4
2769.65,3
2768.68,1
2767.72,1
2766.76,2
2765.79,2
2764.83,-0
2763.86,-2
2762.90,-1
2761.93,0
2760.97,-1
2760.01,-1
2759.04,-0
2758.08,1
2757.11,1
2756.15,1
2755.19,0
2754.22,0
2753.26,1
2752.29,1
2751.33,1
2750.36,0
2749.40,0
2748.44,0
2747.47,1
2746.51,1
2745.54,0
2744.58,0
2743.61,1
2742.65,1
2741.69,1
2740.72,1
2739.76,1
2738.79,1
2737.83,-1
2736.86,-2
2735.90,-2
2734.94,0
2733.97,1
2733.01,2
2732.04,2
2731.08,1
2730.12,0
2729.15,-1
2728.19,-1
2727.22,0
2726.26,1
2725.29,2
2724.33,1
2723.37,-1
2722.40,-2
2721.44,-3
2720.47,-3
2719.51,-2
2718.54,-2
2717.58,-1
2716.62,1
2715.65,3
2714.69,2
2713.72,1
2712.76,-1
2711.79,-1
2710.83,-1
2709.87,-1
2708.90,0
2707.94,1
2706.97,-0
2706.01,-2
2705.05,-3
2704.08,-0
2703.12,2
2702.15,3
2701.19,3
2700.22,3
2699.26,2
2698.30,-0
2697.33,-1
2696.37,-1
2695.40,-0
2694.44,0
2693.47,1
2692.51,2
2691.55,3
2690.58,3
2689.62,2
2688.65,3
2687.69,2
2686.72,-0
2685.76,-1
2684.80,-1
2683.83,0
2682.87,1
2681.90,1
2680.94,-0
2679.98,-1
2679.01,0
2678.05,2
2677.08,2
2676.12,2
2675.15,0
2674.19,-2
2673.23,-3
2672.26,-2
2671.30,-3
2670.33,-3
2669.37,-2
2668.40,-2
2667.44,-1
2666.48,0
2665.51,1
2664.55,1
2663.58,1
2662.62,-0
2661.65,-2
2660.69,-2
2659.73,-2
2658.76,-0
2657.80,1
2656.83,2
2655.87,1
2654.91,0
2653.94,-0
2652.98,1
2652.01,2
2651.05,2
2650.08,3
2649.12,4
2648.16,3
2647.19,1
2646.23,0
2645.26,1
2644.30,1
2643.33,1
2642.37,2
2641.41,4
2640.44,5
2639.48,4
2638.51,2
2637.55,1
2636.58,2
2635.62,2
2634.66,1
2633.69,0
2632.73,-1
2631.76,-1
2630.80,-1
2629.83,1
2628.87,3
2627.91,5
2626.94,6
2625.98,5
2625.01,5
2624.05,3
2623.09,1
2622.12,2
2621.16,2
2620.19,0
2619.23,-1
2618.26,0
2617.30,3
2616.34,3
2615.37,1
2614.41,0
2613.44,0
2612.48,0
2611.51,-0
2610.55,-0
2609.59,0
2608.62,2
2607.66,3
2606.69,3
2605.73,3
2604.76,3
2603.80,2
2602.84,2
2601.87,1
2600.91,0
2599.94,0
2598.98,1
2598.02,1
2597.05,2
2596.09,1
2595.12,1
2594.16,0
2593.19,0
2592.23,0
2591.27,0
2590.30,-0
2589.34,-1
2588.37,-1
2587.41,-0
2586.44,-0
2585.48,0
2584.52,1
2583.55,1
2582.59,-1
2581.62,-2
2580.66,-1
2579.69,1
2578.73,1
2577.77,-2
2576.80,-4
2575.84,-5
2574.87,-4
2573.91,-2
2572.95,-1
2571.98,-1
2571.02,-2
2570.05,-2
2569.09,-1
2568.12,2
2567.16,4
2566.20,3
2565.23,2
2564.27,3
2563.30,3
2562.34,2
2561.37,1
2560.41,2
2559.45,2
2558.48,1
2557.52,1
2556.55,2
2555.59,3
2554.62,4
2553.66,3
2552.70,2
2551.73,1
2550.77,0
2549.80,-0
2548.84,-0
2547.88,0
2546.91,1
2545.95,2
2544.98,2
2544.02,2
2543.05,3
2542.09,4
2541.13,4
2540.16,1
2539.20,0
2538.23,2
2537.27,4
2536.30,4
2535.34,3
2534.38,2
2533.41,0
2532.45,1
2531.48,2
2530.52,2
2529.55,1
2528.59,1
2527.63,2
2526.66,2
2525.70,2
2524.73,1
2523.77,-1
2522.81,-1
2521.84,1
2520.88,0
2519.91,-2
2518.95,-2
2517.98,-1
2517.02,-2
2516.06,-3
2515.09,-4
2514.13,-3
2513.16,-1
2512.20,1
2511.23,0
2510.27,-3
2509.31,-4
2508.34,-2
2507.38,0
2506.41,1
2505.45,1
2504.48,0
2503.52,0
2502.56,-0
2501.59,-1
2500.63,-0
2499.66,0
2498.70,0
2497.74,1
2496.77,1
2495.81,2
2494.84,2
2493.88,1
2492.91,1
2491.95,2
2490.99,3
2490.02,5
2489.06,5
2488.09,2
2487.13,1
2486.16,3
2485.20,4
2484.24,2
2483.27,2
2482.31,4
2481.34,6
2480.38,6
2479.41,5
2478.45,2
2477.49,0
2476.52,-1
2475.56,-1
2474.59,0
2473.63,2
2472.66,2
2471.70,1
2470.74,0
2469.77,-0
2468.81,0
2467.84,2
2466.88,2
2465.92,1
2464.95,-0
2463.99,-0
2463.02,-0
2462.06,-1
2461.09,-2
2460.13,-1
2459.17,-1
2458.20,-1
2457.24,-3
2456.27,-3
2455.31,-3
2454.34,-1
2453.38,1
2452.42,4
2451.45,5
2450.49,3
2449.52,1
2448.56,-0
2447.59,0
2446.63,-0
2445.67,-2
2444.70,-2
2443.74,-2
2442.77,-1
2441.81,2
2440.85,1
2439.88,-2
2438.92,-3
2437.95,-2
2436.99,0
2436.02,0
2435.06,-0
2434.10,-1
2433.13,-2
2432.17,-2
2431.20,-2
2430.24,-3
2429.27,-4
2428.31,-4
2427.35,-4
2426.38,-5
2425.42,-6
2424.45,-7
2423.49,-7
2422.52,-6
2421.56,-3
2420.60,-0
2419.63,0
2418.67,0
2417.70,1
2416.74,1
2415.78,0
2414.81,-2
2413.85,-4
2412.88,-4
2411.92,-3
2410.95,0
2409.99,1
2409.03,1
2408.06,1
2407.10,0
2406.13,-1
2405.17,-3
2404.20,-2
2403.24,-2
2402.28,0
2401.31,2
2400.35,2
2399.38,2
2398.42,1
2397.45,1
2396.49,-0
2395.53,-1
2394.56,-2
2393.60,-2
2392.63,-2
2391.67,-3
2390.71,-4
2389.74,-3
2388.78,-2
2387.81,-1
2386.85,-2
2385.88,-3
2384.92,-5
2383.96,-5
2382.99,-3
2382.03,-3
2381.06,-4
2380.10,-4
2379.13,-4
2378.17,-3
2377.21,-0
2376.24,1
2375.28,-1
2374.31,-3
2373.35,-3
2372.38,-3
2371.42,-3
2370.46,-3
2369.49,-1
2368.53,1
2367.56,1
2366.60,-1
2365.64,0
2364.67,3
2363.71,3
2362.74,1
2361.78,0
2360.81,2
2359.85,4
2358.89,3
2357.92,2
2356.96,0
2355.99,0
2355.03,2
2354.06,5
2353.10,4
2352.14,2
2351.17,0
2350.21,-0
2349.24,1
2348.28,3
2347.31,4
2346.35,3
2345.39,1
2344.42,1
2343.46,0
2342.49,0
2341.53,-1
2340.57,-2
2339.60,-2
2338.64,-0
2337.67,1
2336.71,0
2335.74,-2
2334.78,-2
2333.82,-1
2332.85,-0
2331.89,-0
2330.92,1
2329.96,2
2328.99,3
2328.03,4
2327.07,4
2326.10,4
2325.14,3
2324.17,0
2323.21,-1
2322.24,-1
2321.28,-2
2320.32,-2
2319.35,-1
2318.39,-1
2317.42,0
2316.46,0
2315.49,0
2314.53,-0
2313.57,-1
2312.60,-1
2311.64,-1
2310.67,-1
2309.71,-1
2308.75,-0
2307.78,-0
2306.82,-0
2305.85,-2
2304.89,-2
2303.92,-0
2302.96,2
2302.00,2
2301.03,0
2300.07,-0
2299.10,1
2298.14,2
2297.17,1
2296.21,1
2295.25,0
2294.28,-0
2293.32,-0
2292.35,1
2291.39,3
2290.42,3
2289.46,2
2288.50,-0
2287.53,-0
2286.57,1
2285.60,1
2284.64,-0
2283.68,0
2282.71,1
2281.75,1
2280.78,2
2279.82,3
2278.85,4
2277.89,4
2276.93,2
2275.96,1
2275.00,1
2274.03,1
2273.07,1
2272.10,0
2271.14,-1
2270.18,-1
2269.21,-0
2268.25,0
2267.28,-2
2266.32,-4
2265.35,-4
2264.39,-3
2263.43,-3
2262.46,-4
2261.50,-5
2260.53,-4
2259.57,-2
2258.61,-1
2257.64,-3
2256.68,-7
2255.71,-10
2254.75,-9
2253.78,-6
2252.82,-3
2251.86,-2
2250.89,-0
2249.93,0
2248.96,-0
2248.00,-2
2247.03,-5
2246.07,-7
2245.11,-8
2244.14,-7
2243.18,-5
2242.21,-3
2241.25,-2
2240.28,-3
2239.32,-4
2238.36,-3
2237.39,-1
2236.43,-0
2235.46,-1
2234.50,-3
2233.54,-5
2232.57,-5
2231.61,-3
2230.64,-1
2229.68,-0
2228.71,-0
2227.75,-0
2226.79,0
2225.82,1
2224.86,1
2223.89,1
2222.93,1
2221.96,2
2221.00,2
2220.04,2
2219.07,0
2218.11,-2
2217.14,-3
2216.18,-3
2215.21,-1
2214.25,0
2213.29,1
2212.32,-1
2211.36,-3
2210.39,-4
2209.43,-3
2208.47,-1
2207.50,0
2206.54,-0
2205.57,-1
2204.61,-1
2203.64,1
2202.68,3
2201.72,5
2200.75,6
2199.79,6
2198.82,4
2197.86,2
2196.89,1
2195.93,-0
2194.97,-0
2194.00,1
2193.04,2
2192.07,1
2191.11,2
2190.14,3
2189.18,5
2188.22,6
2187.25,6
2186.29,4
2185.32,3
2184.36,4
2183.40,6
2182.43,4
2181.47,2
2180.50,0
2179.54,0
2178.57,1
2177.61,3
2176.65,3
2175.68,3
2174.72,2
2173.75,1
2172.79,1
2171.82,1
2170.86,0
2169.90,-1
2168.93,-2
2167.97,-2
2167.00,-1
2166.04,-1
2165.07,0
2164.11,0
2163.15,-1
2162.18,-1
2161.22,-1
2160.25,-0
2159.29,-1
2158.32,-1
2157.36,-0
2156.40,2
2155.43,2
2154.47,2
2153.50,1
2152.54,0
2151.58,-0
2150.61,-0
2149.65,-0
2148.68,-0
2147.72,0
2146.75,2
2145.79,3
2144.83,2
2143.86,0
2142.90,-0
2141.93,-0
2140.97,-1
2140.00,-3
2139.04,-4
2138.08,-3
2137.11,-2
2136.15,-1
2135.18,-0
2134.22,0
2133.25,1
2132.29,2
2131.33,2
2130.36,1
2129.40,1
2128.43,0
2127.47,1
2126.51,1
2125.54,0
2124.58,-1
2123.61,-0
2122.65,0
2121.68,-1
2120.72,-1
2119.76,0
2118.79,3
2117.83,3
2116.86,1
2115.90,-1
2114.93,-2
2113.97,-3
2113.01,-3
2112.04,-3
2111.08,-3
2110.11,-2
2109.15,-1
2108.18,1
2107.22,0
2106.26,-1
2105.29,-2
2104.33,-4
2103.36,-3
2102.40,-1
2101.44,0
2100.47,0
2099.51,-1
2098.54,-2
2097.58,-2
2096.61,-2
2095.65,-1
2094.69,-1
2093.72,-2
2092.76,-1
2091.79,1
2090.83,2
2089.86,4
2088.90,4
2087.94,3
2086.97,1
2086.01,0
2085.04,0
2084.08,2
2083.11,3
2082.15,3
2081.19,1
2080.22,1
2079.26,2
2078.29,3
2077.33,3
2076.37,4
2075.40,5
2074.44,6
2073.47,5
2072.51,4
2071.54,2
2070.58,0
2069.62,-0
2068.65,1
2067.69,2
2066.72,0
2065.76,0
2064.79,4
2063.83,7
2062.87,6
2061.90,4
2060.94,2
2059.97,1
2059.01,0
2058.04,0
2057.08,1
2056.12,2
2055.15,1
2054.19,-1
2053.22,-2
2052.26,-3
2051.30,-2
2050.33,-0
2049.37,3
2048.40,3
2047.44,2
2046.47,0
2045.51,-2
2044.55,-3
2043.58,-1
2042.62,1
2041.65,1
2040.69,-0
2039.72,1
2038.76,2
2037.80,0
2036.83,-3
2035.87,-5
2034.90,-5
2033.94,-5
2032.97,-4
2032.01,-3
2031.05,-0
2030.08,1
2029.12,-1
2028.15,-4
2027.19,-4
2026.23,-2
2025.26,-1
2024.30,-1
2023.33,-1
2022.37,-1
2021.40,0
2020.44,3
2019.48,4
2018.51,2
2017.55,-0
2016.58,-0
2015.62,0
2014.65,0
2013.69,-0
2012.73,0
2011.76,1
2010.80,4
2009.83,8
2008.87,10
2007.90,7
2006.94,4
2005.98,3
2005.01,3
2004.05,2
2003.08,-1
2002.12,-2
2001.15,-1
2000.19,1
1999.23,2
1998.26,2
1997.30,0
1996.33,-2
1995.37,-2
1994.41,-2
1993.44,1
1992.48,4
1991.51,5
1990.55,5
1989.58,4
1988.62,4
1987.66,4
1986.69,4
1985.73,2
1984.76,2
1983.80,2
1982.83,2
1981.87,2
1980.91,2
1979.94,1
1978.98,-1
1978.01,-3
1977.05,-3
1976.08,-1
1975.12,2
1974.16,2
1973.19,1
1972.23,-1
1971.26,-1
1970.30,0
1969.34,2
1968.37,3
1967.41,2
1966.44,0
1965.48,-1
1964.51,-2
1963.55,-2
1962.59,0
1961.62,-0
1960.66,-3
1959.69,-5
1958.73,-6
1957.76,-5
1956.80,-6
1955.84,-6
1954.87,-4
1953.91,-1
1952.94,-1
1951.98,-2
1951.01,-2
1950.05,-3
1949.09,-2
1948.12,-1
1947.16,-1
1946.19,-3
1945.23,-6
1944.27,-5
1943.30,-3
1942.34,-0
1941.37,1
1940.41,1
1939.44,-0
1938.48,-2
1937.52,-3
1936.55,-3
1935.59,-3
1934.62,-3
1933.66,-2
1932.69,-2
1931.73,-2
1930.77,-2
1929.80,-3
1928.84,-3
1927.87,-2
1926.91,-3
1925.94,-4
1924.98,-3
1924.02,-2
1923.05,-1
1922.09,-0
1921.12,1
1920.16,1
1919.20,2
1918.23,3
1917.27,5
1916.30,6
1915.34,6
1914.37,4
1913.41,2
1912.45,0
1911.48,1
1910.52,2
1909.55,2
1908.59,1
1907.62,1
1906.66,1
1905.70,-0
1904.73,-0
1903.77,1
1902.80,2
1901.84,3
1900.87,3
1899.91,3
1898.95,0
1897.98,-1
1897.02,2
1896.05,7
1895.09,8
1894.13,6
1893.16,5
1892.20,3
1891.23,3
1890.27,2
1889.30,1
1888.34,1
1887.38,1
1886.41,2
1885.45,4
1884.48,5
1883.52,4
1882.55,2
1881.59,1
1880.63,0
1879.66,1
1878.70,2
1877.73,2
1876.77,1
1875.80,0
1874.84,1
1873.88,2
1872.91,3
1871.95,2
1870.98,1
1870.02,-1
1869.06,-3
1868.09,-3
1867.13,-3
1866.16,-4
1865.20,-3
1864.23,-2
1863.27,-1
1862.31,0
1861.34,-0
1860.38,-3
1859.41,-7
1858.45,-9
1857.48,-9
1856.52,-8
1855.56,-6
1854.59,-4
1853.63,-4
1852.66,-3
1851.70,-2
1850.73,-3
1849.77,-5
1848.81,-7
1847.84,-7
1846.88,-5
1845.91,-3
1844.95,-2
1843.98,0
1843.02,3
1842.06,5
1841.09,6
1840.13,4
1839.16,2
1838.20,-0
1837.24,-1
1836.27,0
1835.31,1
1834.34,2
1833.38,1
1832.41,0
1831.45,-1
1830.49,-2
1829.52,-1
1828.56,-1
1827.59,-0
1826.63,-0
1825.66,-0
1824.70,0
1823.74,2
1822.77,4
1821.81,3
1820.84,-0
1819.88,-3
1818.91,-5
1817.95,-4
1816.99,-4
1816.02,-3
1815.06,-3
1814.09,-3
1813.13,-2
1812.17,-2
1811.20,-1
1810.24,0
1809.27,1
1808.31,0
1807.34,-0
1806.38,-1
1805.42,-1
1804.45,-1
1803.49,0
1802.52,0
1801.56,-1
1800.59,-1
1799.63,-1
1798.67,0
1797.70,-0
1796.74,-1
1795.77,-0
1794.81,0
1793.84,0
1792.88,1
1791.92,2
1790.95,1
1789.99,0
1789.02,0
1788.06,-0
1787.10,-1
1786.13,-1
1785.17,0
1784.20,3
1783.24,7
1782.27,9
1781.31,9
1780.35,6
1779.38,3
1778.42,3
1777.45,4
1776.49,6
1775.52,8
1774.56,8
1773.60,7
1772.63,6
1771.67,4
1770.70,2
1769.74,4
1768.77,7
1767.81,9
1766.85,9
1765.88,9
1764.92,8
1763.95,9
1762.99,9
1762.03,8
1761.06,8
1760.10,7
1759.13,7
1758.17,5
1757.20,3
1756.24,1
1755.28,1
1754.31,2
1753.35,3
1752.38,4
1751.42,3
1750.45,2
1749.49,-1
1748.53,-1
1747.56,-0
1746.60,2
1745.63,2
1744.67,1
1743.70,0
1742.74,0
1741.78,-0
1740.81,-1
1739.85,-2
1738.88,-2
1737.92,-3
1736.96,-4
1735.99,-5
1735.03,-5
1734.06,-3
1733.10,-1
1732.13,0
1731.17,0
1730.21,-1
1729.24,-3
1728.28,-2
1727.31,-1
1726.35,-0
1725.38,-1
1724.42,-2
1723.46,-5
1722.49,-7
1721.53,-7
1720.56,-4
1719.60,-2
1718.63,-2
1717.67,-2
1716.71,-2
1715.74,-1
1714.78,-1
1713.81,-1
1712.85,-2
1711.89,-3
1710.92,-3
1709.96,-2
1708.99,-0
1708.03,0
1707.06,0
1706.10,-0
1705.14,-1
1704.17,0
1703.21,1
1702.24,3
1701.28,6
1700.31,9
1699.35,11
1698.39,11
1697.42,11
1696.46,12
1695.49,12
1694.53,12
1693.56,14
1692.60,17
1691.64,20
1690.67,24
1689.71,28
1688.74,29
1687.78,31
1686.81,32
1685.85,33
1684.89,35
1683.92,37
1682.96,39
1681.99,41
1681.03,43
1680.07,46
1679.10,51
1678.14,56
1677.17,59
1676.21,62
1675.24,66
1674.28,72
1673.32,76
1672.35,78
1671.39,80
1670.42,82
1669.46,84
1668.49,87
1667.53,92
1666.57,98
1665.60,103
1664.64,107
1663.67,110
1662.71,111
1661.74,112
1660.78,116
1659.82,123
1658.85,130
1657.89,136
1656.92,140
1655.96,143
1655.00,146
1654.03,150
1653.07,156
1652.10,164
1651.14,172
1650.17,181
1649.21,192
1648.25,202
1647.28,213
1646.32,223
1645.35,233
1644.39,244
1643.42,257
1642.46,269
1641.50,281
1640.53,292
1639.57,301
1638.60,308
1637.64,312
1636.67,311
1635.71,306
1634.75,298
1633.78,288
1632.82,277
1631.85,267
1630.89,260
1629.93,254
1628.96,249
1628.00,245
1627.03,243
1626.07,244
1625.10,246
1624.14,249
1623.18,251
1622.21,254
1621.25,256
1620.28,258
1619.32,260
1618.35,262
1617.39,263
1616.43,265
1615.46,271
1614.50,278
1613.53,281
1612.57,280
1611.60,280
1610.64,282
1609.68,285
1608.71,289
1607.75,294
1606.78,299
1605.82,303
1604.86,307
1603.89,309
1602.93,310
1601.96,310
1601.00,308
1600.03,304
1599.07,301
1598.11,299
1597.14,299
1596.18,300
1595.21,302
1594.25,303
1593.28,301
1592.32,297
1591.36,294
1590.39,293
1589.43,292
1588.46,290
1587.50,287
1586.53,288
1585.57,290
1584.61,287
1583.64,282
1582.68,277
1581.71,274
1580.75,270
1579.79,267
1578.82,266
1577.86,267
1576.89,267
1575.93,264
1574.96,259
1574.00,254
1573.04,249
1572.07,246
1571.11,245
1570.14,246
1569.18,244
1568.21,238
1567.25,233
1566.29,231
1565.32,229
1564.36,225
1563.39,221
1562.43,218
1561.46,214
1560.50,211
1559.54,209
1558.57,209
1557.61,209
1556.64,209
1555.68,206
1554.72,201
1553.75,198
1552.79,199
1551.82,198
1550.86,195
1549.89,191
1548.93,189
1547.97,186
1547.00,182
1546.04,177
1545.07,172
1544.11,171
1543.14,171
1542.18,170
1541.22,166
1540.25,163
1539.29,161
1538.32,159
1537.36,156
1536.39,154
1535.43,151
1534.47,148
1533.50,148
1532.54,151
1531.57,153
1530.61,153
1529.64,150
1528.68,147
1527.72,144
1526.75,141
1525.79,140
1524.82,139
1523.86,138
1522.90,135
1521.93,131
1520.97,127
1520.00,125
1519.04,125
1518.07,126
1517.11,128
1516.15,127
1515.18,125
1514.22,121
1513.25,118
1512.29,117
1511.32,118
1510.36,119
1509.40,119
1508.43,116
1507.47,113
1506.50,113
1505.54,113
1504.57,114
1503.61,115
1502.65,116
1501.68,116
1500.72,116
1499.75,117
1498.79,116
1497.83,114
1496.86,113
1495.90,114
1494.93,119
1493.97,122
1493.00,120
1492.04,118
1491.08,117
1490.11,118
1489.15,120
1488.18,122
1487.22,122
1486.25,123
1485.29,126
1484.33,129
1483.36,132
1482.40,135
1481.43,138
1480.47,141
1479.50,144
1478.54,146
1477.58,148
1476.61,149
1475.65,149
1474.68,150
1473.72,150
1472.76,151
1471.79,152
1470.83,153
1469.86,155
1468.90,159
1467.93,162
1466.97,164
1466.01,166
1465.04,169
1464.08,171
1463.11,172
1462.15,174
1461.18,174
1460.22,172
1459.26,170
1458.29,169
1457.33,173
1456.36,179
1455.40,183
1454.43,184
1453.47,183
1452.51,185
1451.54,191
1450.58,198
1449.61,204
1448.65,211
1447.69,219
1446.72,226
1445.76,232
1444.79,239
1443.83,249
1442.86,259
1441.90,269
1440.94,273
1439.97,272
1439.01,270
1438.04,270
1437.08,267
1436.11,259
1435.15,249
1434.19,239
1433.22,229
1432.26,220
1431.29,212
1430.33,202
1429.36,193
1428.40,185
1427.44,182
1426.47,181
1425.51,179
1424.54,172
1423.58,166
1422.62,165
1421.65,166
1420.69,167
1419.72,167
1418.76,166
1417.79,163
1416.83,160
1415.87,157
1414.90,156
1413.94,154
1412.97,154
1412.01,153
1411.04,150
1410.08,148
1409.12,147
1408.15,147
1407.19,147
1406.22,148
1405.26,151
1404.29,153
1403.33,154
1402.37,155
1401.40,156
1400.44,157
1399.47,159
1398.51,163
1397.55,168
1396.58,171
1395.62,173
1394.65,176
1393.69,179
1392.72,184
1391.76,190
1390.80,193
1389.83,195
1388.87,196
1387.90,198
1386.94,201
1385.97,204
1385.01,206
1384.05,207
1383.08,211
1382.12,218
1381.15,225
1380.19,229
1379.22,228
1378.26,227
1377.30,227
1376.33,228
1375.37,231
1374.40,234
1373.44,236
1372.47,239
1371.51,240
1370.55,241
1369.58,240
1368.62,237
1367.65,234
1366.69,233
1365.73,235
1364.76,237
1363.80,237
1362.83,237
1361.87,235
1360.90,233
1359.94,235
1358.98,237
1358.01,237
1357.05,234
1356.08,231
1355.12,228
1354.15,225
1353.19,224
1352.23,224
1351.26,222
1350.30,219
1349.33,216
1348.37,213
1347.40,210
1346.44,208
1345.48,208
1344.51,208
1343.55,208
1342.58,209
1341.62,207
1340.66,203
1339.69,199
1338.73,199
1337.76,200
1336.80,200
1335.83,197
1334.87,195
1333.91,194
1332.94,194
1331.98,195
1331.01,197
1330.05,196
1329.08,194
1328.12,193
1327.16,195
1326.19,198
1325.23,197
1324.26,194
1323.30,192
1322.33,194
1321.37,197
1320.41,197
1319.44,196
1318.48,196
1317.51,199
1316.55,201
1315.59,204
1314.62,208
1313.66,214
1312.69,218
1311.73,218
1310.76,217
1309.80,218
1308.84,223
1307.87,229
1306.91,231
1305.94,230
1304.98,230
1304.01,230
1303.05,228
1302.09,222
1301.12,215
1300.16,210
1299.19,208
1298.23,205
1297.26,199
1296.30,192
1295.34,188
1294.37,187
1293.41,187
1292.44,184
1291.48,181
1290.52,177
1289.55,175
1288.59,174
1287.62,176
1286.66,178
1285.69,180
1284.73,178
1283.77,173
1282.80,168
1281.84,164
1280.87,163
1279.91,165
1278.94,166
1277.98,164
1277.02,159
1276.05,152
1275.09,145
1274.12,143
1273.16,142
1272.19,136
1271.23,128
1270.27,122
1269.30,117
1268.34,111
1267.37,104
1266.41,98
1265.45,95
1264.48,96
1263.52,97
1262.55,96
1261.59,92
1260.62,85
1259.66,80
1258.70,77
1257.73,78
1256.77,80
1255.80,77
1254.84,72
1253.87,66
1252.91,59
1251.95,52
1250.98,48
1250.02,44
1249.05,42
1248.09,41
1247.12,40
1246.16,39
1245.20,38
1244.23,38
1243.27,38
1242.30,38
1241.34,36
1240.38,33
1239.41,31
1238.45,28
1237.48,28
1236.52,30
1235.55,30
1234.59,28
1233.63,25
1232.66,23
1231.70,21
1230.73,17
1229.77,14
1228.80,12
1227.84,13
1226.88,13
1225.91,12
1224.95,10
1223.98,8
1223.02,6
1222.05,5
1221.09,6
1220.13,9
1219.16,12
1218.20,14
1217.23,13
1216.27,11
1215.30,10
1214.34,10
1213.38,9
1212.41,6
1211.45,0
1210.48,-4
1209.52,-1
1208.56,5
1207.59,9
1206.63,11
1205.66,12
1204.70,14
1203.73,16
1202.77,18
1201.81,21
1200.84,22
1199.88,21
1198.91,17
1197.95,11
1196.98,7
1196.02,6
1195.06,7
1194.09,7
1193.13,6
1192.16,3
1191.20,0
1190.23,-2
1189.27,-3
1188.31,-2
1187.34,-2
1186.38,-3
1185.41,-5
1184.45,-4
1183.49,-3
1182.52,-2
1181.56,0
1180.59,2
1179.63,3
1178.66,5
1177.70,8
1176.74,11
1175.77,11
1174.81,9
1173.84,6
1172.88,6
1171.91,8
1170.95,10
1169.99,11
1169.02,11
1168.06,13
1167.09,15
1166.13,16
1165.16,16
1164.20,16
1163.24,15
1162.27,15
1161.31,15
1160.34,15
1159.38,15
1158.42,12
1157.45,8
1156.49,6
1155.52,6
1154.56,6
1153.59,7
1152.63,6
1151.67,3
1150.70,-1
1149.74,-3
1148.77,-2
1147.81,-1
1146.84,-1
1145.88,-0
1144.92,1
1143.95,4
1142.99,6
1142.02,6
1141.06,6
1140.09,6
1139.13,6
1138.17,4
1137.20,3
1136.24,4
1135.27,8
1134.31,14
1133.35,20
1132.38,23
1131.42,28
1130.45,34
1129.49,41
1128.52,50
1127.56,58
1126.60,65
1125.63,74
1124.67,82
1123.70,88
1122.74,91
1121.77,93
1120.81,92
1119.85,90
1118.88,88
1117.92,86
1116.95,82
1115.99,78
1115.02,73
1114.06,70
1113.10,67
1112.13,64
1111.17,60
1110.20,56
1109.24,54
1108.28,54
1107.31,54
1106.35,54
1105.38,53
1104.42,51
1103.45,47
1102.49,41
1101.53,36
1100.56,37
1099.60,42
1098.63,46
1097.67,46
1096.70,45
1095.74,45
1094.78,45
1093.81,43
1092.85,40
1091.88,40
1090.92,42
1089.95,44
1088.99,45
1088.03,45
1087.06,46
1086.10,48
1085.13,52
1084.17,54
1083.21,54
1082.24,54
1081.28,53
1080.31,51
1079.35,51
1078.38,53
1077.42,54
1076.46,54
1075.49,53
1074.53,54
1073.56,54
1072.60,54
1071.63,54
1070.67,53
1069.71,51
1068.74,49
1067.78,50
1066.81,52
1065.85,55
1064.88,56
1063.92,55
1062.96,53
1061.99,50
1061.03,46
1060.06,43
1059.10,41
1058.13,38
1057.17,34
1056.21,31
1055.24,28
1054.28,24
1053.31,18
1052.35,15
1051.39,15
1050.42,16
1049.46,15
1048.49,10
1047.53,3
1046.56,-1
1045.60,-1
1044.64,0
1043.67,-1
1042.71,-2
1041.74,-2
1040.78,0
1039.81,3
1038.85,4
1037.89,4
1036.92,4
1035.96,6
1034.99,5
1034.03,2
1033.06,-1
1032.10,-3
1031.14,-2
1030.17,-1
1029.21,-2
1028.24,-2
1027.28,-1
1026.32,0
1025.35,0
1024.39,-1
1023.42,-1
1022.46,1
1021.49,4
1020.53,6
1019.57,6
1018.60,5
1017.64,2
1016.67,-0
1015.71,-1
1014.74,0
1013.78,-0
1012.82,-3
1011.85,-6
1010.89,-8
1009.92,-8
1008.96,-7
1007.99,-5
1007.03,-3
1006.07,0
1005.10,3
1004.14,4
1003.17,4
1002.21,4
1001.25,3
1000.28,-0
999.32,-2
998.35,-2
997.39,-2
996.42,-2
995.46,-1
994.50,1
993.53,2
992.57,2
991.60,2
990.64,3
989.67,3
988.71,2
987.75,-0
986.78,-1
985.82,-2
984.85,-1
983.89,0
982.92,0
981.96,-2
981.00,-4
980.03,-5
979.07,-5
978.10,-5
977.14,-7
976.18,-9
975.21,-10
974.25,-10
973.28,-11
972.32,-14
971.35,-16
970.39,-13
969.43,-9
968.46,-5
967.50,-4
966.53,-7
965.57,-11
964.60,-15
963.64,-14
962.68,-9
961.71,-3
960.75,1
959.78,2
958.82,2
957.85,0
956.89,0
955.93,2
954.96,4
954.00,4
953.03,3
952.07,3
951.11,6
950.14,10
949.18,12
948.21,12
947.25,14
946.28,15
945.32,16
944.36,16
943.39,13
942.43,10
941.46,11
940.50,14
939.53,19
938.57,25
937.61,31
936.64,35
935.68,38
934.71,43
933.75,49
932.78,56
931.82,61
930.86,66
929.89,70
928.93,73
927.96,74
927.00,73
926.04,71
925.07,66
924.11,62
923.14,58
922.18,58
921.21,58
920.25,57
919.29,54
918.32,50
917.36,46
916.39,42
915.43,38
914.46,35
913.50,34
912.54,34
911.57,32
910.61,31
909.64,29
908.68,28
907.71,28
906.75,27
905.79,25
904.82,22
903.86,19
902.89,18
901.93,19
900.96,21
900.00,21
899.04,20
898.07,20
897.11,18
896.14,16
895.18,16
894.22,21
893.25,30
892.29,37
891.32,43
890.36,48
889.39,54
888.43,60
887.47,66
886.50,72
885.54,78
884.57,80
883.61,79
882.64,76
881.68,70
880.72,60
879.75,55
878.79,55
877.82,55
876.86,57
875.89,59
874.93,60
873.97,60
873.00,58
872.04,61
871.07,64
870.11,65
869.15,64
868.18,61
867.22,61
866.25,61
865.29,57
864.32,54
863.36,55
862.40,58
861.43,60
860.47,57
859.50,52
858.54,45
857.57,39
856.61,35
855.65,34
854.68,35
853.72,38
852.75,39
851.79,39
850.82,37
849.86,36
848.90,35
847.93,34
846.97,33
846.00,31
845.04,27
844.08,24
843.11,22
842.15,24
841.18,28
840.22,35
839.25,39
838.29,37
837.33,20
836.36,-20
835.40,-73
834.43,-100
833.47,-55
832.50,17
831.54,33
830.58,28
829.61,24
828.65,24
827.68,22
826.72,19
825.75,14
824.79,13
823.83,15
822.86,17
821.90,18
820.93,15
819.97,10
819.01,5
818.04,1
817.08,-3
816.11,-5
815.15,-5
814.18,-2
813.22,1
812.26,3
811.29,3
810.33,2
809.36,-0
808.40,-1
807.43,-1
806.47,2
805.51,4
804.54,6
803.58,7
802.61,7
801.65,6
800.68,6
799.72,7
798.76,8
797.79,8
796.83,6
795.86,4
794.90,0
793.94,-1
792.97,-2
792.01,-3
791.04,-4
790.08,-6
789.11,-8
788.15,-9
787.19,-8
786.22,-5
785.26,-2
784.29,1
783.33,4
782.36,7
781.40,11
780.44,12
779.47,10
778.51,7
777.54,4
776.58,3
775.61,2
774.65,0
773.69,-0
772.72,0
771.76,-1
770.79,-2
769.83,-2
768.87,-1
767.90,1
766.94,2
765.97,2
765.01,3
764.04,3
763.08,2
762.12,-1
761.15,-6
760.19,-10
759.22,-12
758.26,-13
757.29,-14
756.33,-16
755.37,-17
754.40,-18
753.44,-17
752.47,-15
751.51,-14
750.54,-14
749.58,-14
748.62,-12
747.65,-9
746.69,-6
745.72,-4
744.76,-4
743.79,-5
742.83,-8
741.87,-10
740.90,-11
739.94,-9
738.97,-3
738.01,2
737.05,3
736.08,-0
735.12,-1
734.15,2
733.19,7
732.22,11
731.26,13
730.30,13
729.33,14
728.37,16
727.40,18
726.44,17
725.47,14
724.51,11
723.55,8
722.58,5
721.62,3
720.65,2
719.69,2
718.72,2
717.76,3
716.80,8
715.83,11
714.87,12
713.90,9
712.94,7
711.98,7
711.01,9
710.05,9
709.08,9
708.12,11
707.15,15
706.19,17
705.23,16
704.26,13
703.30,11
702.33,10
701.37,10
700.40,9
699.44,8
698.48,6
697.51,5
696.55,4
695.58,4
694.62,4
693.65,4
692.69,4
691.73,2
690.76,-0
689.80,-3
688.83,-8
687.87,-7
686.91,16
685.94,43
684.98,59
684.01,61
683.05,56
682.08,42
681.12,12
680.16,-8
679.19,-13
678.23,-6
677.26,2
676.30,4
675.33,3
674.37,0
673.41,-1
672.44,-1
671.48,-0
670.51,1
669.55,-0
668.58,-1
667.62,-1
666.66,-1
665.69,-2
664.73,-4
663.76,-2
662.80,2
661.84,5
660.87,7
659.91,9
658.94,10
657.98,11
657.01,11
656.05,10
655.09,9
654.12,10
653.16,11
652.19,12
651.23,12
650.26,11
649.30,9
648.34,9
647.37,10
646.41,11
645.44,13
644.48,14
643.51,16
642.55,16
641.59,15
640.62,13
639.66,9
638.69,7
637.73,7
636.77,9
635.80,13
634.84,16
633.87,17
632.91,14
631.94,14
630.98,16
630.02,19
629.05,17
628.09,13
627.12,11
626.16,9
625.19,7
624.23,5
623.27,3
622.30,1
621.34,0
620.37,0
619.41,-0
618.44,-2
617.48,-3
616.52,-2
615.55,0
614.59,1
613.62,-1
612.66,-4
611.70,-5
610.73,-3
609.77,-2
608.80,-1
607.84,-0
606.87,1
605.91,2
604.95,3
603.98,4
603.02,3
602.05,3
601.09,2
600.12,1
599.16,0
598.20,0
597.23,-0
596.27,-0
595.30,-1
594.34,-3
593.37,-4
592.41,-3
591.45,1
590.48,5
589.52,7
588.55,8
587.59,7
586.62,6
585.66,6
584.70,6
583.73,8
582.77,11
581.80,14
580.84,17
579.88,17
578.91,15
577.95,12
576.98,12
576.02,13
575.05,15
574.09,17
573.13,17
572.16,17
571.20,16
570.23,13
569.27,10
568.30,8
567.34,7
566.38,8
565.41,10
564.45,10
563.48,9
562.52,8
561.55,7
560.59,6
559.63,2
558.66,-2
557.70,-4
556.73,-3
555.77,-2
554.81,1
553.84,2
552.88,2
551.91,3
550.95,3
549.98,3
549.02,3
548.06,2
547.09,2
546.13,2
545.16,1
544.20,-2
543.23,-4
542.27,-4
541.31,-3
540.34,-2
539.38,-3
538.41,-4
537.45,-6
536.48,-8
535.52,-10
534.56,-9
533.59,-8
532.63,-6
531.66,-2
530.70,1
529.74,1
528.77,-1
527.81,-2
526.84,-1
525.88,1
524.91,0
523.95,-1
522.99,-1
522.02,-0
521.06,3
520.09,4
519.13,5
518.16,5
517.20,5
516.24,4
515.27,3
514.31,4
513.34,5
512.38,8
511.41,9
510.45,8
509.49,5
508.52,1
507.56,-0
506.59,0
505.63,2
504.67,5
503.70,7
502.74,7
501.77,6
500.81,5
499.84,3
498.88,1
497.92,-1
496.95,-2
495.99,-2
495.02,-2
494.06,-4
493.09,-4
492.13,-2
491.17,0
490.20,1
489.24,-0
488.27,-1
487.31,2
486.34,5
485.38,8
484.42,9
483.45,8
482.49,8
481.52,9
480.56,9
479.60,7
478.63,2
477.67,-1
476.70,-2
475.74,-3
474.77,-4
473.81,-5
472.85,-6
471.88,-6
470.92,-4
469.95,-2
468.99,-0
468.02,2
467.06,4
466.10,6
465.13,6
464.17,5
463.20,4
462.24,4
461.27,4
460.31,4
459.35,5
458.38,6
457.42,8
456.45,11
455.49,15
454.53,17
453.56,17
452.60,15
451.63,13
450.67,12
449.70,13
448.74,14
447.78,16
446.81,16
445.85,15
444.88,15
443.92,16
442.95,17
441.99,16
441.03,15
440.06,13
439.10,12
438.13,11
437.17,10
436.20,9
435.24,8
434.28,7
433.31,4
432.35,3
431.38,3
430.42,5
429.45,5
428.49,4
427.53,5
426.56,6
425.60,6
424.63,4
423.67,3
422.71,3
421.74,2
420.78,1
419.81,0
418.85,-0
417.88,-1
416.92,-2
415.96,-3
414.99,-3
414.03,-4
413.06,-5
412.10,-5
411.13,-3
410.17,-2
409.21,-2
408.24,-4
407.28,-4
406.31,-4
405.35,-2
404.38,1
403.42,6
402.46,9
401.49,10
400.53,9
399.56,7
398.60,7
397.64,6
396.67,5
395.71,5
394.74,7
393.78,8
392.81,8
391.85,9
390.89,9
389.92,8
388.96,7
387.99,8
387.03,11
386.06,14
385.10,16
384.14,16
383.17,14
382.21,12
381.24,11
380.28,11
379.31,9
378.35,6
377.39,3
376.42,1
375.46,1
374.49,1
373.53,1
372.57,-1
371.60,-2
370.64,-2
369.67,-2
368.71,-1
367.74,-1
366.78,-2
365.82,-3
364.85,-3
363.89,-2
362.92,0
361.96,1
360.99,-0
360.03,-3
359.07,-5
358.10,-5
357.14,-3
356.17,0
355.21,3
354.24,7
353.28,10
352.32,10
351.35,6
350.39,0
349.42,-3
348.46,-3
347.50,0
346.53,4
345.57,6
344.60,7
343.64,7
342.67,6
341.71,5
340.75,4
339.78,4
338.82,4
337.85,4
336.89,4
335.92,4
334.96,3
334.00,3
333.03,3
332.07,3
331.10,2
330.14,1
329.17,1
328.21,2
327.25,3
326.28,6
325.32,9
324.35,10
323.39,9
322.43,5
321.46,3
320.50,2
319.53,0
318.57,-2
317.60,-6
316.64,-9
315.68,-10
314.71,-9
313.75,-7
312.78,-4
311.82,-2
310.85,-0
309.89,-1
308.93,-2
307.96,-5
307.00,-8
306.03,-11
305.07,-13
304.10,-11
303.14,-7
302.18,-3
301.21,-0
300.25,0
299.28,-1
298.32,-2
297.36,-4
296.39,-2
295.43,0
294.46,3
293.50,4
292.53,3
291.57,0
290.61,-2
289.64,-3
288.68,-3
287.71,-3
286.75,-4
285.78,-3
284.82,-0
283.86,3
282.89,5
281.93,2
280.96,-2
280.00,-4
279.03,-5
278.07,-5
277.11,-7
276.14,-9
275.18,-11
274.21,-11
273.25,-10
272.28,-8
271.32,-6
270.36,-4
269.39,-3
268.43,-3
267.46,-3
266.50,-4
265.54,-5
264.57,-6
263.61,-8
262.64,-10
261.68,-10
260.71,-10
259.75,-8
258.79,-5
257.82,-3
256.86,-3
255.89,-3
254.93,-4
253.96,-5
253.00,-6
252.04,-5
251.07,-3
250.11,-2
249.14,-1
248.18,-1
247.21,-0
246.25,0
245.29,1
244.32,1
243.36,0
242.39,-0
241.43,-1
240.47,-1
239.50,-0
238.54,0
237.57,1
236.61,1
235.64,1
234.68,2
233.72,3
232.75,5
231.79,10
230.82,18
229.86,29
228.89,38
227.93,45
226.97,50
226.00,53
225.04,52
224.07,47
223.11,36
222.14,23
221.18,12
220.22,7
219.25,4
218.29,2
217.32,3
216.36,3
215.40,2
214.43,-0
213.47,-4
212.50,-6
211.54,-6
210.57,-3
209.61,1
208.65,5
207.68,6
206.72,5
205.75,2
204.79,-2
203.82,-3
202.86,-1
201.90,2
200.93,5
199.97,6
199.00,5
198.04,5
197.07,6
196.11,9
195.15,8
194.18,6
193.22,4
192.25,4
191.29,4
190.33,4
189.36,3
188.40,0
187.43,-3
186.47,-5
185.50,-5
184.54,-2
183.58,1
182.61,2
181.65,-0
180.68,-4
179.72,-7
178.75,-8
177.79,-7
176.83,-3
175.86,1
174.90,4
173.93,5
172.97,6
172.00,5
171.04,3
170.08,1
169.11,-1
168.15,-3
167.18,-3
166.22,-3
165.26,-2
164.29,-0
163.33,0
162.36,-0
161.40,1
160.43,3
159.47,6
158.51,9
157.54,13
156.58,14
155.61,13
154.65,11
153.68,8
152.72,6
151.76,4
150.79,3
149.83,3
148.86,4
147.90,4
146.93,1
145.97,1
145.01,0
144.04,-1
143.08,-2
142.11,-2
141.15,-1
140.19,1
139.22,4
138.26,8
137.29,11
136.33,14
135.36,14
134.40,11
133.44,7
132.47,4
131.51,4
130.54,6
129.58,11
128.61,18
127.65,24
126.69,29
125.72,31
124.76,31
123.79,32
122.83,34
121.86,38
120.90,45
119.94,55
118.97,66
118.01,76
117.04,84
116.08,89
115.11,95
114.15,102
113.19,111
112.22,120
111.26,131
110.29,143
109.33,157
108.37,172
107.40,187
106.44,201
105.47,214
104.51,224
103.54,231
102.58,236
101.62,243
100.65,249
99.69,255
98.72,263
97.76,271
96.79,274
95.83,275
94.87,276
93.90,280
92.94,287
91.97,292
91.01,297
90.04,300
89.08,303
88.12,307
87.15,310
86.19,313
85.22,315
84.26,318
83.30,319
82.33,322
81.37,326
80.40,334
79.44,344
78.47,351
77.51,357
76.55,363
